blockLoop_thisRepN	trialLoop_thisRepN	trigger	firstKey	readyKey_corr	readyKey_rt	targetKey	blockType	margin	outcome	trialResp_keys	trialResp_corr	trialResp_rt
0	0	51	f	1	128.7214882001281	f	11	0.1	0	f	1	0.7923050891258754
0	1	71	n/a	n/a	n/a	f	11	0.11	0	f	1	0.8110475749708712
0	2	71	n/a	n/a	n/a	j	11	0.12	0	j	1	0.7743343694892246
0	3	71	n/a	n/a	n/a	f	11	0.13	0	f	1	0.8408744706830475
0	4	71	n/a	n/a	n/a	f	11	0.14	0	f	1	0.7647079619055148
0	5	71	n/a	n/a	n/a	f	11	0.15	0	f	1	0.7038767067133449
0	6	71	n/a	n/a	n/a	f	11	0.16	0	f	1	0.7306627239158843
0	7	71	n/a	n/a	n/a	f	11	0.17	0	f	1	0.7575043356628157
0	8	71	n/a	n/a	n/a	j	11	0.18	0	j	1	0.8475093220768031
0	9	71	n/a	n/a	n/a	f	11	0.1900000000000001	1	f	1	0.9145052984240465
0	10	91	n/a	n/a	n/a	f	11	0.18	1	f	1	0.7814239556610119
0	11	91	n/a	n/a	n/a	f	11	0.17	0	f	1	0.8720510306593496
0	12	71	n/a	n/a	n/a	f	11	0.18	1	f	1	0.9152682265266776
0	13	91	n/a	n/a	n/a	f	11	0.17	1	f	1	0.8861800253798719
0	14	91	n/a	n/a	n/a	j	11	0.16	1	j	1	0.8411732556705829
0	15	91	n/a	n/a	n/a	f	11	0.15	1	f	1	0.8686435132985935
0	16	91	n/a	n/a	n/a	f	11	0.14	1	f	1	0.8639564663462806
0	17	91	n/a	n/a	n/a	f	11	0.13	1	f	1	0.8750651097507216
0	18	91	n/a	n/a	n/a	f	11	0.12	1	f	1	0.8059978805540595
0	19	91	n/a	n/a	n/a	f	11	0.11	0	f	1	0.8330892400699668
0	20	71	n/a	n/a	n/a	j	11	0.12	0	j	1	0.795668701059185
0	21	71	n/a	n/a	n/a	f	11	0.13	0	f	1	0.9508738178119529
0	22	71	n/a	n/a	n/a	f	11	0.14	1	f	1	0.8988284948572982
0	23	91	n/a	n/a	n/a	f	11	0.13	1	f	1	0.9327762285538483
0	24	91	n/a	n/a	n/a	f	11	0.12	1	f	1	0.8955330218595918
0	25	91	n/a	n/a	n/a	f	11	0.11	1	f	1	0.9066276953672059
0	26	91	n/a	n/a	n/a	j	11	0.1	1	j	1	0.9335317440563813
0	27	91	n/a	n/a	n/a	f	11	0.09000000000000002	1	f	1	0.8724017038475722
0	28	91	n/a	n/a	n/a	f	11	0.08000000000000003	0	f	1	0.875455126806628
0	29	71	n/a	n/a	n/a	f	11	0.09000000000000002	0	f	1	0.8783933692320716
0	30	71	n/a	n/a	n/a	f	11	0.1	0	f	1	0.9768815115385223
0	31	71	n/a	n/a	n/a	f	11	0.11	1	f	1	0.9482910952647217
0	32	91	n/a	n/a	n/a	j	11	0.1	1	f	0	0.9524133587838151
0	33	131	n/a	n/a	n/a	f	11	0.09000000000000002	1	f	1	0.9868802599085029
0	34	91	n/a	n/a	n/a	f	11	0.08000000000000003	1	f	1	0.9656231905100867
0	35	91	n/a	n/a	n/a	f	11	0.07000000000000003	1	f	1	0.9852366573759355
0	36	91	n/a	n/a	n/a	f	11	0.06000000000000003	1	f	1	0.9635758861259092
0	37	91	n/a	n/a	n/a	f	11	0.05000000000000003	1	f	1	0.9106866666406859
0	38	91	n/a	n/a	n/a	j	11	0.04000000000000003	0	j	1	0.9546562418690883
0	39	71	n/a	n/a	n/a	f	11	0.05000000000000003	1	f	1	0.9109438270097598
0	40	91	n/a	n/a	n/a	f	11	0.04000000000000003	0	f	1	0.9458321062265895
0	41	71	n/a	n/a	n/a	f	11	0.05000000000000003	1	f	1	1.004891463788226
0	42	91	n/a	n/a	n/a	f	11	0.04000000000000003	1	f	1	0.8557179264316801
0	43	91	n/a	n/a	n/a	f	11	0.03000000000000003	0	f	1	0.8678740278992336
0	44	71	n/a	n/a	n/a	j	11	0.04000000000000003	0	j	1	1.006276480446104
0	45	71	n/a	n/a	n/a	f	11	0.05000000000000003	1	f	1	1.041242592036724
0	46	91	n/a	n/a	n/a	f	11	0.04000000000000003	2	f	1	0.8842074172280263
0	47	111	n/a	n/a	n/a	f	11	0.05000000000000003	0	f	1	0.9431969252473209
0	48	71	n/a	n/a	n/a	f	11	0.06000000000000003	1	f	1	1.13043732373626
0	49	91	n/a	n/a	n/a	f	11	0.05000000000000003	2	f	1	0.9822667688131332
0	50	111	n/a	n/a	n/a	j	11	0.06000000000000003	1	j	1	1.001273542497074
0	51	91	n/a	n/a	n/a	f	11	0.05000000000000003	1	f	1	0.9799868226691615
0	52	91	n/a	n/a	n/a	f	11	0.04000000000000003	1	f	1	0.9351670786854811
0	53	91	n/a	n/a	n/a	f	11	0.03000000000000003	0	f	1	0.8740983350435272
0	54	71	n/a	n/a	n/a	f	11	0.04000000000000003	0	f	1	1.012559803319164
0	55	71	n/a	n/a	n/a	f	11	0.05000000000000003	1	f	1	0.9281439208425581
0	56	91	n/a	n/a	n/a	j	11	0.04000000000000003	0	j	1	0.9787181268911809
0	57	71	n/a	n/a	n/a	f	11	0.05000000000000003	1	f	1	1.037860448588617
0	58	91	n/a	n/a	n/a	f	11	0.04000000000000003	2	f	1	0.9719264704035595
0	59	111	n/a	n/a	n/a	f	11	0.05000000000000003	1	f	1	0.9675159705802798
0	60	91	n/a	n/a	n/a	f	11	0.04000000000000003	1	f	1	0.8508116374432575
0	61	91	n/a	n/a	n/a	f	11	0.03000000000000003	0	f	1	0.9013413678330835
0	62	71	n/a	n/a	n/a	j	11	0.04000000000000003	0	j	1	1.041116577747744
0	63	71	n/a	n/a	n/a	f	11	0.05000000000000003	2	f	1	0.8944852786953561
0	64	111	n/a	n/a	n/a	f	11	0.06000000000000003	0	f	1	0.9613774786121212
0	65	71	n/a	n/a	n/a	f	11	0.07000000000000003	1	f	1	0.9254725321661681
0	66	91	n/a	n/a	n/a	f	11	0.06000000000000003	1	f	1	0.9371465292351786
0	67	91	n/a	n/a	n/a	f	11	0.05000000000000003	1	f	1	0.9563542985415552
0	68	91	n/a	n/a	n/a	j	11	0.04000000000000003	1	j	1	0.9430215886386577
0	69	91	n/a	n/a	n/a	f	11	0.03000000000000003	0	f	1	0.9393951143720187
0	70	71	n/a	n/a	n/a	f	11	0.04000000000000003	0	f	1	0.9028720706992317
0	71	71	n/a	n/a	n/a	f	11	0.05000000000000003	0	f	1	0.9779922618181445
1	0	66	j	1	0.004880344873527065	j	6	0.1	2	j	1	0.6364359740691725
1	1	106	n/a	n/a	n/a	f	6	0.11	1	f	1	0.6796238046081271
1	2	86	n/a	n/a	n/a	j	6	0.1	1	j	1	0.6344254475843627
1	3	86	n/a	n/a	n/a	j	6	0.09000000000000001	1	j	1	0.6616433915623929
1	4	86	n/a	n/a	n/a	j	6	0.08000000000000002	1	j	1	0.6416430437529925
1	5	86	n/a	n/a	n/a	f	6	0.07000000000000002	1	f	1	0.6463326566154137
1	6	86	n/a	n/a	n/a	j	6	0.06000000000000002	2	j	1	0.6415894449164625
1	7	106	n/a	n/a	n/a	j	6	0.07000000000000002	1	j	1	0.7175375669321511
1	8	86	n/a	n/a	n/a	j	6	0.06000000000000002	2	j	1	0.6566036756848916
1	9	106	n/a	n/a	n/a	f	6	0.07000000000000002	1	f	1	0.7323884353099857
1	10	86	n/a	n/a	n/a	j	6	0.06000000000000002	2	j	1	0.6325423608941492
1	11	106	n/a	n/a	n/a	j	6	0.07000000000000002	1	j	1	0.6747699740517419
1	12	86	n/a	n/a	n/a	j	6	0.06000000000000002	2	j	1	0.7753191055089701
1	13	106	n/a	n/a	n/a	f	6	0.07000000000000002	2	f	1	0.6119176436914131
1	14	106	n/a	n/a	n/a	j	6	0.08000000000000002	1	j	1	0.6562236371391919
1	15	86	n/a	n/a	n/a	j	6	0.07000000000000002	2	j	1	0.6511719470436219
1	16	106	n/a	n/a	n/a	j	6	0.08000000000000002	1	j	1	0.6461940979061183
1	17	86	n/a	n/a	n/a	f	6	0.07000000000000002	1	f	1	0.6252996759139933
1	18	86	n/a	n/a	n/a	j	6	0.06000000000000002	1	j	1	0.6451343805529177
1	19	86	n/a	n/a	n/a	j	6	0.05000000000000002	2	j	1	0.6637645368755329
1	20	106	n/a	n/a	n/a	j	6	0.06000000000000002	2	j	1	0.6187842815124895
1	21	106	n/a	n/a	n/a	f	6	0.07000000000000002	1	f	1	0.605862115859054
1	22	86	n/a	n/a	n/a	j	6	0.06000000000000002	1	j	1	0.6079986566037405
1	23	86	n/a	n/a	n/a	j	6	0.05000000000000002	1	j	1	0.618927686882671
1	24	86	n/a	n/a	n/a	j	6	0.04000000000000001	1	j	1	0.6469034271722194
1	25	86	n/a	n/a	n/a	f	6	0.03000000000000001	2	f	1	0.6335544665344059
1	26	106	n/a	n/a	n/a	j	6	0.04000000000000001	2	j	1	0.6528985137410928
1	27	106	n/a	n/a	n/a	j	6	0.05000000000000002	2	j	1	0.5838367014657706
1	28	106	n/a	n/a	n/a	j	6	0.06000000000000002	1	j	1	0.5945938163495157
1	29	86	n/a	n/a	n/a	f	6	0.05000000000000002	1	f	1	0.5587205160118174
1	30	86	n/a	n/a	n/a	j	6	0.04000000000000001	1	j	1	0.5965721265238244
1	31	86	n/a	n/a	n/a	j	6	0.03000000000000001	1	j	1	0.6323111446690746
1	32	86	n/a	n/a	n/a	j	6	0.02000000000000001	2	j	1	0.604622785380343
1	33	106	n/a	n/a	n/a	f	6	0.03000000000000001	1	f	1	0.6316799328487832
1	34	86	n/a	n/a	n/a	j	6	0.02000000000000001	2	j	1	0.6020771258627065
1	35	106	n/a	n/a	n/a	j	6	0.03000000000000001	1	j	1	0.5571285166079178
1	36	86	n/a	n/a	n/a	j	6	0.02000000000000001	0	j	1	0.6085899543832056
1	37	66	n/a	n/a	n/a	f	6	0.03000000000000001	1	f	1	0.6434431662783027
1	38	86	n/a	n/a	n/a	j	6	0.02000000000000001	2	j	1	0.6493860795162618
1	39	106	n/a	n/a	n/a	j	6	0.03000000000000001	2	j	1	0.629260002519004
1	40	106	n/a	n/a	n/a	j	6	0.04000000000000001	2	j	1	0.6244190014549531
1	41	106	n/a	n/a	n/a	f	6	0.05000000000000002	1	f	1	0.6023089123191312
1	42	86	n/a	n/a	n/a	j	6	0.04000000000000001	1	j	1	0.5651039090298582
1	43	86	n/a	n/a	n/a	j	6	0.03000000000000001	1	j	1	0.6092462550150231
1	44	86	n/a	n/a	n/a	j	6	0.02000000000000001	2	j	1	0.6201216864574235
1	45	106	n/a	n/a	n/a	f	6	0.03000000000000001	2	f	1	0.6494345465616789
1	46	106	n/a	n/a	n/a	j	6	0.04000000000000001	2	j	1	0.6439956904214341
1	47	106	n/a	n/a	n/a	j	6	0.05000000000000002	2	j	1	0.6150061339430977
1	48	106	n/a	n/a	n/a	j	6	0.06000000000000002	1	j	1	0.5700495418568607
1	49	86	n/a	n/a	n/a	f	6	0.05000000000000002	1	f	1	0.5345688244560733
1	50	86	n/a	n/a	n/a	j	6	0.04000000000000001	0	j	1	0.5619869087822735
1	51	66	n/a	n/a	n/a	j	6	0.05000000000000002	1	j	1	0.6384536280238535
1	52	86	n/a	n/a	n/a	j	6	0.04000000000000001	2	j	1	0.5958682141499594
1	53	106	n/a	n/a	n/a	f	6	0.05000000000000002	1	f	1	0.5989002545829862
1	54	86	n/a	n/a	n/a	j	6	0.04000000000000001	1	j	1	0.5377625167020597
1	55	86	n/a	n/a	n/a	j	6	0.03000000000000001	0	j	1	0.5339869349845685
1	56	66	n/a	n/a	n/a	j	6	0.04000000000000001	0	j	1	0.5863840715610422
1	57	66	n/a	n/a	n/a	f	6	0.05000000000000002	1	f	1	0.589242485963041
1	58	86	n/a	n/a	n/a	j	6	0.04000000000000001	1	j	1	0.5782675545488019
1	59	86	n/a	n/a	n/a	j	6	0.03000000000000001	1	j	1	0.5577035636815708
1	60	86	n/a	n/a	n/a	j	6	0.02000000000000001	0	j	1	0.6265789204335306
1	61	66	n/a	n/a	n/a	f	6	0.03000000000000001	2	f	1	0.5575179634324741
1	62	106	n/a	n/a	n/a	j	6	0.04000000000000001	1	j	1	0.6514889784448314
1	63	86	n/a	n/a	n/a	j	6	0.03000000000000001	2	j	1	0.5985253478283994
1	64	106	n/a	n/a	n/a	j	6	0.04000000000000001	1	j	1	0.562501799693564
1	65	86	n/a	n/a	n/a	f	6	0.03000000000000001	1	f	1	0.5964640735182911
1	66	86	n/a	n/a	n/a	j	6	0.02000000000000001	1	j	1	0.6333625941188075
1	67	86	n/a	n/a	n/a	j	6	0.01000000000000001	2	j	1	0.6303847227536608
1	68	106	n/a	n/a	n/a	j	6	0.02000000000000001	2	j	1	0.577349817060167
1	69	106	n/a	n/a	n/a	f	6	0.03000000000000001	1	f	1	0.6042832310486119
1	70	86	n/a	n/a	n/a	j	6	0.02000000000000001	2	j	1	0.5683839866251219
1	71	106	n/a	n/a	n/a	j	6	0.03000000000000001	1	j	1	0.5952127688215114
2	0	90	j	1	0.06616604974260554	j	10	0.1	0	j	1	0.9876714129350148
2	1	70	n/a	n/a	n/a	f	10	0.11	1	f	1	1.061356979917036
2	2	90	n/a	n/a	n/a	j	10	0.1	1	j	1	1.064514749508817
2	3	90	n/a	n/a	n/a	j	10	0.09000000000000001	1	j	1	1.019283320871182
2	4	90	n/a	n/a	n/a	j	10	0.08000000000000002	1	j	1	1.013969908817671
2	5	90	n/a	n/a	n/a	f	10	0.07000000000000002	1	f	1	1.065250307961833
2	6	90	n/a	n/a	n/a	j	10	0.06000000000000002	2	j	1	1.044371851603501
2	7	110	n/a	n/a	n/a	j	10	0.07000000000000002	1	j	1	1.000030790804885
2	8	90	n/a	n/a	n/a	j	10	0.06000000000000002	1	j	1	1.036513065133477
2	9	90	n/a	n/a	n/a	f	10	0.05000000000000002	2	f	1	0.9763486592564732
2	10	110	n/a	n/a	n/a	j	10	0.06000000000000002	1	j	1	0.9788515537511557
2	11	90	n/a	n/a	n/a	j	10	0.05000000000000002	1	j	1	0.9818297102465294
2	12	90	n/a	n/a	n/a	j	10	0.04000000000000001	1	j	1	0.9454780117666814
2	13	90	n/a	n/a	n/a	f	10	0.03000000000000001	0	f	1	1.028791982069379
2	14	70	n/a	n/a	n/a	j	10	0.04000000000000001	1	j	1	1.006227158126421
2	15	90	n/a	n/a	n/a	j	10	0.03000000000000001	1	j	1	0.9226024286472239
2	16	90	n/a	n/a	n/a	j	10	0.02000000000000001	0	j	1	0.95711665644194
2	17	70	n/a	n/a	n/a	f	10	0.03000000000000001	1	f	1	1.040710024914006
2	18	90	n/a	n/a	n/a	j	10	0.02000000000000001	2	j	1	0.9725032280548476
2	19	110	n/a	n/a	n/a	j	10	0.03000000000000001	1	j	1	0.934848906879779
2	20	90	n/a	n/a	n/a	j	10	0.02000000000000001	0	j	1	0.9303400475473609
2	21	70	n/a	n/a	n/a	f	10	0.03000000000000001	0	f	1	0.9813541631447151
2	22	70	n/a	n/a	n/a	j	10	0.04000000000000001	1	j	1	1.008937605540268
2	23	90	n/a	n/a	n/a	j	10	0.03000000000000001	1	j	1	0.9463680945336819
2	24	90	n/a	n/a	n/a	j	10	0.02000000000000001	0	j	1	0.8782314323470928
2	25	70	n/a	n/a	n/a	f	10	0.03000000000000001	0	f	1	0.9470109954709187
2	26	70	n/a	n/a	n/a	j	10	0.04000000000000001	0	j	1	1.063066725706449
2	27	70	n/a	n/a	n/a	j	10	0.05000000000000002	2	j	1	1.141000570496544
2	28	110	n/a	n/a	n/a	j	10	0.06000000000000002	2	j	1	1.026971047220286
2	29	110	n/a	n/a	n/a	f	10	0.07000000000000002	1	f	1	0.8569943199399859
2	30	90	n/a	n/a	n/a	j	10	0.06000000000000002	0	j	1	0.9159761302580591
2	31	70	n/a	n/a	n/a	j	10	0.07000000000000002	0	j	1	1.014669829746708
2	32	70	n/a	n/a	n/a	j	10	0.08000000000000002	1	j	1	0.8812304011371452
2	33	90	n/a	n/a	n/a	f	10	0.07000000000000002	0	f	1	0.9384311906178482
2	34	70	n/a	n/a	n/a	j	10	0.08000000000000002	1	j	1	0.9481351454451215
2	35	90	n/a	n/a	n/a	j	10	0.07000000000000002	1	j	1	0.8886447164113633
2	36	90	n/a	n/a	n/a	j	10	0.06000000000000002	0	j	1	0.8276823151682038
2	37	70	n/a	n/a	n/a	f	10	0.07000000000000002	0	f	1	1.008576668711612
2	38	70	n/a	n/a	n/a	j	10	0.08000000000000002	1	j	1	0.9873392712033819
2	39	90	n/a	n/a	n/a	j	10	0.07000000000000002	1	j	1	0.9912867683160584
2	40	90	n/a	n/a	n/a	j	10	0.06000000000000002	1	j	1	0.9221112010418437
2	41	90	n/a	n/a	n/a	f	10	0.05000000000000002	0	f	1	0.9893805884930771
2	42	70	n/a	n/a	n/a	j	10	0.06000000000000002	1	j	1	0.9047828121110797
2	43	90	n/a	n/a	n/a	j	10	0.05000000000000002	0	j	1	0.9172887314925902
2	44	70	n/a	n/a	n/a	j	10	0.06000000000000002	0	j	1	0.9559121081838384
2	45	70	n/a	n/a	n/a	f	10	0.07000000000000002	1	f	1	0.9189879285695497
2	46	90	n/a	n/a	n/a	j	10	0.06000000000000002	0	j	1	0.994976819929434
2	47	70	n/a	n/a	n/a	j	10	0.07000000000000002	1	j	1	1.038800994079793
2	48	90	n/a	n/a	n/a	j	10	0.06000000000000002	1	j	1	0.9390601216582581
2	49	90	n/a	n/a	n/a	f	10	0.05000000000000002	0	f	1	0.9586989624367561
2	50	70	n/a	n/a	n/a	j	10	0.06000000000000002	1	j	1	1.08148049103329
2	51	90	n/a	n/a	n/a	j	10	0.05000000000000002	2	j	1	0.9956319801567588
2	52	110	n/a	n/a	n/a	j	10	0.06000000000000002	1	j	1	1.09416630861233
2	53	90	n/a	n/a	n/a	f	10	0.05000000000000002	2	f	1	1.035567387851188
2	54	110	n/a	n/a	n/a	j	10	0.06000000000000002	1	j	1	0.9978360896348022
2	55	90	n/a	n/a	n/a	j	10	0.05000000000000002	1	j	1	0.9367644949816167
2	56	90	n/a	n/a	n/a	j	10	0.04000000000000001	0	j	1	0.9857817689189687
2	57	70	n/a	n/a	n/a	f	10	0.05000000000000002	1	f	1	1.118333965772763
2	58	90	n/a	n/a	n/a	j	10	0.04000000000000001	2	j	1	1.009230688534444
2	59	110	n/a	n/a	n/a	j	10	0.05000000000000002	1	j	1	0.915676204895135
2	60	90	n/a	n/a	n/a	j	10	0.04000000000000001	0	j	1	0.9109290017804597
2	61	70	n/a	n/a	n/a	f	10	0.05000000000000002	0	f	1	0.9160325801058207
2	62	70	n/a	n/a	n/a	j	10	0.06000000000000002	0	j	1	0.9188442380691413
2	63	70	n/a	n/a	n/a	j	10	0.07000000000000002	1	j	1	1.121946185070556
2	64	90	n/a	n/a	n/a	j	10	0.06000000000000002	2	j	1	0.9888155199587345
2	65	110	n/a	n/a	n/a	f	10	0.07000000000000002	1	f	1	0.9919849786383566
2	66	90	n/a	n/a	n/a	j	10	0.06000000000000002	1	j	1	0.978734092466766
2	67	90	n/a	n/a	n/a	j	10	0.05000000000000002	1	j	1	0.9736858235846739
2	68	90	n/a	n/a	n/a	j	10	0.04000000000000001	1	j	1	1.008315231854795
2	69	90	n/a	n/a	n/a	f	10	0.03000000000000001	1	f	1	1.05059672895004
2	70	90	n/a	n/a	n/a	j	10	0.02000000000000001	2	j	1	1.054502316284925
2	71	110	n/a	n/a	n/a	j	10	0.03000000000000001	2	j	1	0.9584609037847258
3	0	112	j	1	0.001274397800443694	j	12	0.1	1	j	1	0.9709049564553425
3	1	92	n/a	n/a	n/a	j	12	0.09000000000000001	1	j	1	0.9885113180498593
3	2	92	n/a	n/a	n/a	f	12	0.08000000000000002	1	f	1	0.999428659240948
3	3	92	n/a	n/a	n/a	j	12	0.07000000000000002	1	j	1	1.018223318387754
3	4	92	n/a	n/a	n/a	j	12	0.06000000000000002	1	j	1	0.9674877456855029
3	5	92	n/a	n/a	n/a	j	12	0.05000000000000002	1	j	1	0.8909218115732074
3	6	92	n/a	n/a	n/a	j	12	0.04000000000000001	0	j	1	0.9348779871070292
3	7	72	n/a	n/a	n/a	j	12	0.05000000000000002	0	j	1	1.04434761806624
3	8	72	n/a	n/a	n/a	f	12	0.06000000000000002	2	f	1	1.04939446147182
3	9	112	n/a	n/a	n/a	j	12	0.07000000000000002	1	j	1	0.9002306175534613
3	10	92	n/a	n/a	n/a	j	12	0.06000000000000002	0	j	1	0.9918458497559186
3	11	72	n/a	n/a	n/a	j	12	0.07000000000000002	1	j	1	1.050722173007671
3	12	92	n/a	n/a	n/a	j	12	0.06000000000000002	2	j	1	1.030019338359125
3	13	112	n/a	n/a	n/a	j	12	0.07000000000000002	1	j	1	0.9216513344435953
3	14	92	n/a	n/a	n/a	f	12	0.06000000000000002	0	f	1	0.9164026401413139
3	15	72	n/a	n/a	n/a	j	12	0.07000000000000002	1	j	1	1.023922756110551
3	16	92	n/a	n/a	n/a	j	12	0.06000000000000002	1	j	1	0.9309627063339576
3	17	92	n/a	n/a	n/a	j	12	0.05000000000000002	0	j	1	0.9258118013676722
3	18	72	n/a	n/a	n/a	j	12	0.06000000000000002	0	f	0	0.9527477812662255
3	19	132	n/a	n/a	n/a	j	12	0.05000000000000002	1	j	1	1.203627671697177
3	20	92	n/a	n/a	n/a	f	12	0.04000000000000001	2	f	1	0.8945671024557669
3	21	112	n/a	n/a	n/a	j	12	0.05000000000000002	0	j	1	0.9614798295951914
3	22	72	n/a	n/a	n/a	j	12	0.06000000000000002	1	j	1	1.004428461077623
3	23	92	n/a	n/a	n/a	j	12	0.05000000000000002	1	j	1	0.9029099890321959
3	24	92	n/a	n/a	n/a	j	12	0.04000000000000001	1	f	0	0.9393939739384223
3	25	132	n/a	n/a	n/a	j	12	0.05000000000000002	1	j	1	1.222070232121041
3	26	92	n/a	n/a	n/a	f	12	0.04000000000000001	2	f	1	0.8892611030023545
3	27	112	n/a	n/a	n/a	j	12	0.05000000000000002	0	j	1	1.021177526446991
3	28	72	n/a	n/a	n/a	j	12	0.06000000000000002	1	j	1	1.06426186565659
3	29	92	n/a	n/a	n/a	j	12	0.05000000000000002	2	j	1	0.9629706184496172
3	30	112	n/a	n/a	n/a	j	12	0.06000000000000002	1	j	1	0.9025285249808803
3	31	92	n/a	n/a	n/a	j	12	0.05000000000000002	0	j	1	0.9219581022334751
3	32	72	n/a	n/a	n/a	f	12	0.06000000000000002	0	j	0	0.9737402777536772
3	33	132	n/a	n/a	n/a	j	12	0.07000000000000002	1	j	1	0.8978283634351101
3	34	92	n/a	n/a	n/a	j	12	0.06000000000000002	0	j	1	0.8927838008385152
3	35	72	n/a	n/a	n/a	j	12	0.07000000000000002	0	j	1	0.9130900611635298
3	36	72	n/a	n/a	n/a	j	12	0.08000000000000002	1	j	1	0.9392893421754707
3	37	92	n/a	n/a	n/a	j	12	0.07000000000000002	1	j	1	0.9180801696202252
3	38	92	n/a	n/a	n/a	f	12	0.06000000000000002	0	f	1	1.003684919822263
3	39	72	n/a	n/a	n/a	j	12	0.07000000000000002	1	j	1	0.8145525965665001
3	40	92	n/a	n/a	n/a	j	12	0.06000000000000002	0	j	1	0.9550020683964249
3	41	72	n/a	n/a	n/a	j	12	0.07000000000000002	1	j	1	0.9102373487548903
3	42	92	n/a	n/a	n/a	j	12	0.06000000000000002	0	j	1	0.938306031661341
3	43	72	n/a	n/a	n/a	j	12	0.07000000000000002	1	j	1	0.8693192007485777
3	44	92	n/a	n/a	n/a	f	12	0.06000000000000002	0	f	1	0.984348285215674
3	45	72	n/a	n/a	n/a	j	12	0.07000000000000002	1	j	1	0.8587029253249057
3	46	92	n/a	n/a	n/a	j	12	0.06000000000000002	0	j	1	0.8778248794842511
3	47	72	n/a	n/a	n/a	j	12	0.07000000000000002	0	j	1	1.024811698473059
3	48	72	n/a	n/a	n/a	j	12	0.08000000000000002	1	j	1	0.9239056215737946
3	49	92	n/a	n/a	n/a	j	12	0.07000000000000002	1	j	1	0.9427661388763227
3	50	92	n/a	n/a	n/a	f	12	0.06000000000000002	1	f	1	1.001936685526744
3	51	92	n/a	n/a	n/a	j	12	0.05000000000000002	1	j	1	0.9168496772472281
3	52	92	n/a	n/a	n/a	j	12	0.04000000000000001	0	j	1	0.9359633634740021
3	53	72	n/a	n/a	n/a	j	12	0.05000000000000002	1	j	1	1.002802534785587
3	54	92	n/a	n/a	n/a	j	12	0.04000000000000001	1	j	1	0.934767083148472
3	55	92	n/a	n/a	n/a	j	12	0.03000000000000001	0	j	1	0.971680714021204
3	56	72	n/a	n/a	n/a	f	12	0.04000000000000001	1	f	1	0.9047303536499385
3	57	92	n/a	n/a	n/a	j	12	0.03000000000000001	0	j	1	0.8914808930130675
3	58	72	n/a	n/a	n/a	j	12	0.04000000000000001	0	j	1	0.8943980380427092
3	59	72	n/a	n/a	n/a	j	12	0.05000000000000002	0	j	1	1.057461941265501
3	60	72	n/a	n/a	n/a	j	12	0.06000000000000002	2	j	1	0.9321028219419532
3	61	112	n/a	n/a	n/a	j	12	0.07000000000000002	1	j	1	0.9029573156731203
3	62	92	n/a	n/a	n/a	f	12	0.06000000000000002	0	f	1	0.9457619715831243
3	63	72	n/a	n/a	n/a	j	12	0.07000000000000002	1	j	1	0.9410378615721129
3	64	92	n/a	n/a	n/a	j	12	0.06000000000000002	1	j	1	0.9363605080579873
3	65	92	n/a	n/a	n/a	j	12	0.05000000000000002	1	j	1	0.8666543693689164
3	66	92	n/a	n/a	n/a	j	12	0.04000000000000001	0	j	1	0.9579856417840347
3	67	72	n/a	n/a	n/a	j	12	0.05000000000000002	1	j	1	0.9931858206109609
3	68	92	n/a	n/a	n/a	f	12	0.04000000000000001	1	f	1	0.9176120350894053
3	69	92	n/a	n/a	n/a	j	12	0.03000000000000001	0	j	1	0.8966922392137349
3	70	72	n/a	n/a	n/a	j	12	0.04000000000000001	0	j	1	0.9479535366408527
3	71	72	n/a	n/a	n/a	j	12	0.05000000000000002	1	j	1	1.111969104269519
4	0	87	f	1	0.08819830656284466	f	7	0.1	1	j	0	0.6096029153268319
4	1	127	n/a	n/a	n/a	f	7	0.11	1	j	0	0.5885223229124676
4	2	127	n/a	n/a	n/a	j	7	0.1	1	f	0	0.6475736976717599
4	3	127	n/a	n/a	n/a	f	7	0.09000000000000001	1	f	1	0.6585109958832618
4	4	87	n/a	n/a	n/a	f	7	0.08000000000000002	1	f	1	0.7014345385832712
4	5	87	n/a	n/a	n/a	f	7	0.07000000000000002	2	f	1	0.6805432526743971
4	6	107	n/a	n/a	n/a	f	7	0.08000000000000002	2	f	1	0.6674323507177178
4	7	107	n/a	n/a	n/a	f	7	0.09000000000000001	1	f	1	0.694118297775276
4	8	87	n/a	n/a	n/a	j	7	0.08000000000000002	2	j	1	0.6013256018050015
4	9	107	n/a	n/a	n/a	f	7	0.09000000000000001	1	f	1	0.6282439054921269
4	10	87	n/a	n/a	n/a	f	7	0.08000000000000002	1	f	1	0.6391934629937168
4	11	87	n/a	n/a	n/a	f	7	0.07000000000000002	1	f	1	0.6182314722682349
4	12	87	n/a	n/a	n/a	f	7	0.06000000000000002	1	j	0	0.6611339175433386
4	13	127	n/a	n/a	n/a	f	7	0.05000000000000002	2	f	1	0.6483141028438695
4	14	107	n/a	n/a	n/a	j	7	0.06000000000000002	2	j	1	0.6911159077717457
4	15	107	n/a	n/a	n/a	f	7	0.07000000000000002	2	f	1	0.6140464867348783
4	16	107	n/a	n/a	n/a	f	7	0.08000000000000002	1	f	1	0.6812474501202814
4	17	87	n/a	n/a	n/a	f	7	0.07000000000000002	2	f	1	0.6207594555744436
4	18	107	n/a	n/a	n/a	f	7	0.08000000000000002	1	f	1	0.6480677762883715
4	19	87	n/a	n/a	n/a	f	7	0.07000000000000002	1	f	1	0.5949453448702116
4	20	87	n/a	n/a	n/a	j	7	0.06000000000000002	1	j	1	0.6130244025844149
4	21	87	n/a	n/a	n/a	f	7	0.05000000000000002	1	f	1	0.6408393463352695
4	22	87	n/a	n/a	n/a	f	7	0.04000000000000001	2	f	1	0.6278071320266463
4	23	107	n/a	n/a	n/a	f	7	0.05000000000000002	1	f	1	0.6307040349347517
4	24	87	n/a	n/a	n/a	f	7	0.04000000000000001	2	f	1	0.6176914925163146
4	25	107	n/a	n/a	n/a	f	7	0.05000000000000002	1	f	1	0.6516617491724901
4	26	87	n/a	n/a	n/a	j	7	0.04000000000000001	2	j	1	0.6065720153274015
4	27	107	n/a	n/a	n/a	f	7	0.05000000000000002	1	f	1	0.6417713388218544
4	28	87	n/a	n/a	n/a	f	7	0.04000000000000001	2	f	1	0.5408387476054486
4	29	107	n/a	n/a	n/a	f	7	0.05000000000000002	1	f	1	0.6087550273805391
4	30	87	n/a	n/a	n/a	f	7	0.04000000000000001	1	j	0	0.5715306372730993
4	31	127	n/a	n/a	n/a	f	7	0.03000000000000001	1	j	0	0.7104551082593389
4	32	127	n/a	n/a	n/a	j	7	0.02000000000000001	2	j	1	0.7774627737817355
4	33	107	n/a	n/a	n/a	f	7	0.03000000000000001	2	f	1	0.6203811276063789
4	34	107	n/a	n/a	n/a	f	7	0.04000000000000001	1	f	1	0.6233450291038025
4	35	87	n/a	n/a	n/a	f	7	0.03000000000000001	2	f	1	0.6032691297295969
4	36	107	n/a	n/a	n/a	f	7	0.04000000000000001	1	f	1	0.6701544872485101
4	37	87	n/a	n/a	n/a	f	7	0.03000000000000001	2	f	1	0.6009669457562268
4	38	107	n/a	n/a	n/a	j	7	0.04000000000000001	1	j	1	0.6039385449548718
4	39	87	n/a	n/a	n/a	f	7	0.03000000000000001	1	f	1	0.631206381454831
4	40	87	n/a	n/a	n/a	f	7	0.02000000000000001	2	f	1	0.650136463198578
4	41	107	n/a	n/a	n/a	f	7	0.03000000000000001	2	f	1	0.5900912292127032
4	42	107	n/a	n/a	n/a	f	7	0.04000000000000001	1	f	1	0.6420476009079721
4	43	87	n/a	n/a	n/a	f	7	0.03000000000000001	2	f	1	0.6209806933184154
4	44	107	n/a	n/a	n/a	j	7	0.04000000000000001	1	j	1	0.6251691000361461
4	45	87	n/a	n/a	n/a	f	7	0.03000000000000001	2	f	1	0.6275126234977506
4	46	107	n/a	n/a	n/a	f	7	0.04000000000000001	1	f	1	0.6629374612821266
4	47	87	n/a	n/a	n/a	f	7	0.03000000000000001	2	f	1	0.601728163252119
4	48	107	n/a	n/a	n/a	f	7	0.04000000000000001	1	f	1	0.573492981842719
4	49	87	n/a	n/a	n/a	f	7	0.03000000000000001	1	f	1	0.6258051585173234
4	50	87	n/a	n/a	n/a	j	7	0.02000000000000001	2	j	1	0.5977715429326054
4	51	107	n/a	n/a	n/a	f	7	0.03000000000000001	1	f	1	0.6017361460544635
4	52	87	n/a	n/a	n/a	f	7	0.02000000000000001	1	f	1	0.6206551088835113
4	53	87	n/a	n/a	n/a	f	7	0.01000000000000001	2	f	1	0.6395087837881874
4	54	107	n/a	n/a	n/a	f	7	0.02000000000000001	2	f	1	0.586549999890849
4	55	107	n/a	n/a	n/a	f	7	0.03000000000000001	1	f	1	0.5575652900733985
4	56	87	n/a	n/a	n/a	j	7	0.02000000000000001	0	j	1	0.6817783066653647
4	57	67	n/a	n/a	n/a	f	7	0.03000000000000001	2	f	1	0.533509392203996
4	58	107	n/a	n/a	n/a	f	7	0.04000000000000001	0	f	1	0.5055436304537579
4	59	67	n/a	n/a	n/a	f	7	0.05000000000000002	0	f	1	0.5584251522086561
4	60	67	n/a	n/a	n/a	f	7	0.06000000000000002	1	f	1	0.6909742129500955
4	61	87	n/a	n/a	n/a	f	7	0.05000000000000002	2	f	1	0.694359207409434
4	62	107	n/a	n/a	n/a	j	7	0.06000000000000002	2	j	1	0.6100844495231286
4	63	107	n/a	n/a	n/a	f	7	0.07000000000000002	1	f	1	0.6154597283166368
4	64	87	n/a	n/a	n/a	f	7	0.06000000000000002	1	f	1	0.6021501115174033
4	65	87	n/a	n/a	n/a	f	7	0.05000000000000002	1	f	1	0.6212726359080989
4	66	87	n/a	n/a	n/a	f	7	0.04000000000000001	1	f	1	0.6648299562803004
4	67	87	n/a	n/a	n/a	f	7	0.03000000000000001	2	f	1	0.6121542768087238
4	68	107	n/a	n/a	n/a	j	7	0.04000000000000001	1	j	1	0.6070669492182788
4	69	87	n/a	n/a	n/a	f	7	0.03000000000000001	1	f	1	0.6341283732035663
4	70	87	n/a	n/a	n/a	f	7	0.02000000000000001	2	f	1	0.6380105823627673
4	71	107	n/a	n/a	n/a	f	7	0.03000000000000001	2	f	1	0.6415318546642084
5	0	105	f	1	0.06139375784550793	f	5	0.1	1	f	1	0.6148353589233011
5	1	85	n/a	n/a	n/a	j	5	0.09000000000000001	1	j	1	0.6409382761048619
5	2	85	n/a	n/a	n/a	f	5	0.08000000000000002	1	f	1	0.6047972666856367
5	3	85	n/a	n/a	n/a	f	5	0.07000000000000002	1	f	1	0.6080630892538466
5	4	85	n/a	n/a	n/a	f	5	0.06000000000000002	1	f	1	0.5946579638984986
5	5	85	n/a	n/a	n/a	j	5	0.05000000000000002	1	j	1	0.6226522356446367
5	6	85	n/a	n/a	n/a	f	5	0.04000000000000001	1	f	1	0.6169251432584133
5	7	85	n/a	n/a	n/a	f	5	0.03000000000000001	2	f	1	0.6513806403963827
5	8	105	n/a	n/a	n/a	f	5	0.04000000000000001	2	f	1	0.5990887057851069
5	9	105	n/a	n/a	n/a	j	5	0.05000000000000002	1	j	1	0.5786142363504041
5	10	85	n/a	n/a	n/a	f	5	0.04000000000000001	1	f	1	0.5985013994213659
5	11	85	n/a	n/a	n/a	f	5	0.03000000000000001	1	f	1	0.5526359079813119
5	12	85	n/a	n/a	n/a	f	5	0.02000000000000001	0	f	1	0.6209359325584956
5	13	65	n/a	n/a	n/a	j	5	0.03000000000000001	2	j	1	0.6726325780036859
5	14	105	n/a	n/a	n/a	f	5	0.04000000000000001	2	f	1	0.611388497723965
5	15	105	n/a	n/a	n/a	f	5	0.05000000000000002	1	f	1	0.582312270795228
5	16	85	n/a	n/a	n/a	f	5	0.04000000000000001	1	f	1	0.6489789564802777
5	17	85	n/a	n/a	n/a	j	5	0.03000000000000001	2	j	1	0.6282473267056048
5	18	105	n/a	n/a	n/a	f	5	0.04000000000000001	2	f	1	0.6090934413077775
5	19	105	n/a	n/a	n/a	f	5	0.05000000000000002	1	f	1	0.6451110023190267
5	20	85	n/a	n/a	n/a	f	5	0.04000000000000001	2	f	1	0.5923124446999282
5	21	105	n/a	n/a	n/a	j	5	0.05000000000000002	1	j	1	0.5868262619478628
5	22	85	n/a	n/a	n/a	f	5	0.04000000000000001	1	f	1	0.6474702063133009
5	23	85	n/a	n/a	n/a	f	5	0.03000000000000001	2	f	1	0.5858791591599584
5	24	105	n/a	n/a	n/a	f	5	0.04000000000000001	1	f	1	0.5979651259840466
5	25	85	n/a	n/a	n/a	j	5	0.03000000000000001	1	j	1	0.6253036673297174
5	26	85	n/a	n/a	n/a	f	5	0.02000000000000001	2	f	1	0.5876513418625109
5	27	105	n/a	n/a	n/a	f	5	0.03000000000000001	1	f	1	0.6080696465505753
5	28	85	n/a	n/a	n/a	f	5	0.02000000000000001	2	f	1	0.618949354509823
5	29	105	n/a	n/a	n/a	j	5	0.03000000000000001	2	j	1	0.6138124194694683
5	30	105	n/a	n/a	n/a	f	5	0.04000000000000001	1	f	1	0.6170599956240039
5	31	85	n/a	n/a	n/a	f	5	0.03000000000000001	2	f	1	0.6357879413408227
5	32	105	n/a	n/a	n/a	f	5	0.04000000000000001	2	f	1	0.6066626771644223
5	33	105	n/a	n/a	n/a	j	5	0.05000000000000002	1	j	1	0.6256931141542736
5	34	85	n/a	n/a	n/a	f	5	0.04000000000000001	1	f	1	1.772320136718918
5	35	85	n/a	n/a	n/a	f	5	0.03000000000000001	2	f	1	0.6557583536487073
5	36	105	n/a	n/a	n/a	f	5	0.04000000000000001	2	f	1	0.610483304655645
5	37	105	n/a	n/a	n/a	j	5	0.05000000000000002	1	j	1	0.6065446456777863
5	38	85	n/a	n/a	n/a	f	5	0.04000000000000001	1	f	1	0.5701755561458413
5	39	85	n/a	n/a	n/a	f	5	0.03000000000000001	1	f	1	0.6081856823293492
5	40	85	n/a	n/a	n/a	f	5	0.02000000000000001	2	f	1	0.5709148208843544
5	41	105	n/a	n/a	n/a	j	5	0.03000000000000001	1	j	1	0.6142734264431056
5	42	85	n/a	n/a	n/a	f	5	0.02000000000000001	2	f	1	0.6170249283022713
5	43	105	n/a	n/a	n/a	f	5	0.03000000000000001	2	f	1	0.6043399659974966
5	44	105	n/a	n/a	n/a	f	5	0.04000000000000001	1	f	1	0.6871798147039954
5	45	85	n/a	n/a	n/a	j	5	0.03000000000000001	2	j	1	0.5872322446084581
5	46	105	n/a	n/a	n/a	f	5	0.04000000000000001	1	f	1	0.5338184407737572
5	47	85	n/a	n/a	n/a	f	5	0.03000000000000001	0	f	1	0.5930722366902046
5	48	65	n/a	n/a	n/a	f	5	0.04000000000000001	1	f	1	0.6700997479783837
5	49	85	n/a	n/a	n/a	j	5	0.03000000000000001	2	j	1	0.6569087328680325
5	50	105	n/a	n/a	n/a	f	5	0.04000000000000001	2	f	1	0.5819621677801479
5	51	105	n/a	n/a	n/a	f	5	0.05000000000000002	1	f	1	0.5856180073751602
5	52	85	n/a	n/a	n/a	f	5	0.04000000000000001	1	f	1	0.6078435620875098
5	53	85	n/a	n/a	n/a	j	5	0.03000000000000001	1	j	1	0.6505301865399815
5	54	85	n/a	n/a	n/a	f	5	0.02000000000000001	2	f	1	0.5988874250615481
5	55	105	n/a	n/a	n/a	f	5	0.03000000000000001	1	f	1	0.6268737140344456
5	56	85	n/a	n/a	n/a	f	5	0.02000000000000001	2	f	1	0.6155729130841792
5	57	105	n/a	n/a	n/a	j	5	0.03000000000000001	2	j	1	0.578410674846964
5	58	105	n/a	n/a	n/a	f	5	0.04000000000000001	1	f	1	0.5668093783024233
5	59	85	n/a	n/a	n/a	f	5	0.03000000000000001	1	f	1	0.6023972933762707
5	60	85	n/a	n/a	n/a	f	5	0.02000000000000001	1	f	1	0.6175894266634714
5	61	85	n/a	n/a	n/a	j	5	0.01000000000000001	2	j	1	0.5975970616273116
5	62	105	n/a	n/a	n/a	f	5	0.02000000000000001	1	f	1	0.5367809167364612
5	63	85	n/a	n/a	n/a	f	5	0.01000000000000001	0	f	1	0.5789184382592794
5	64	65	n/a	n/a	n/a	f	5	0.02000000000000001	1	f	1	0.6216050627117511
5	65	85	n/a	n/a	n/a	j	5	0.01000000000000001	2	j	1	0.5540645449655131
5	66	105	n/a	n/a	n/a	f	5	0.02000000000000001	0	f	1	0.5414959035406355
5	67	65	n/a	n/a	n/a	f	5	0.03000000000000001	0	f	1	0.5937781447428279
5	68	65	n/a	n/a	n/a	f	5	0.04000000000000001	1	f	1	0.5810772168042604
5	69	85	n/a	n/a	n/a	j	5	0.03000000000000001	1	j	1	0.5623581091931555
5	70	85	n/a	n/a	n/a	f	5	0.02000000000000001	0	f	1	0.5902808208484203
5	71	65	n/a	n/a	n/a	f	5	0.03000000000000001	1	f	1	0.6092721991008148
6	0	88	j	1	0.04248391819419339	j	8	0.1	1	j	1	0.654140125028789
6	1	88	n/a	n/a	n/a	j	8	0.09000000000000001	1	j	1	0.6160302137723193
6	2	88	n/a	n/a	n/a	f	8	0.08000000000000002	1	f	1	0.6041614933055826
6	3	88	n/a	n/a	n/a	j	8	0.07000000000000002	1	j	1	0.5950171901204158
6	4	88	n/a	n/a	n/a	j	8	0.06000000000000002	1	j	1	0.6220555209729355
6	5	88	n/a	n/a	n/a	j	8	0.05000000000000002	1	j	1	0.5611250509391539
6	6	88	n/a	n/a	n/a	j	8	0.04000000000000001	1	j	1	0.6359125301241875
6	7	88	n/a	n/a	n/a	j	8	0.03000000000000001	2	j	1	0.6149006468476728
6	8	108	n/a	n/a	n/a	f	8	0.04000000000000001	1	f	1	0.5458664892939851
6	9	88	n/a	n/a	n/a	j	8	0.03000000000000001	0	j	1	0.6207908165815752
6	10	68	n/a	n/a	n/a	j	8	0.04000000000000001	1	j	1	0.6477017076686025
6	11	88	n/a	n/a	n/a	j	8	0.03000000000000001	2	j	1	0.5864470787055325
6	12	108	n/a	n/a	n/a	j	8	0.04000000000000001	1	j	1	0.6127652465074789
6	13	88	n/a	n/a	n/a	j	8	0.03000000000000001	1	j	1	0.5928789387689903
6	14	88	n/a	n/a	n/a	f	8	0.02000000000000001	1	f	1	0.5806541281635873
6	15	88	n/a	n/a	n/a	j	8	0.01000000000000001	1	j	1	0.6089454743196256
6	16	88	n/a	n/a	n/a	j	8	1.040834085586084e-17	2	j	1	0.6353970690106507
6	17	108	n/a	n/a	n/a	j	8	0.01000000000000001	2	j	1	0.5985418836353347
6	18	108	n/a	n/a	n/a	j	8	0.02000000000000001	1	j	1	0.6166930717008654
6	19	88	n/a	n/a	n/a	j	8	0.01000000000000001	2	j	1	0.5805378072836902
6	20	108	n/a	n/a	n/a	f	8	0.02000000000000001	1	f	1	0.5990487917442806
6	21	88	n/a	n/a	n/a	j	8	0.01000000000000001	2	j	1	0.6025543835712597
6	22	108	n/a	n/a	n/a	j	8	0.02000000000000001	1	j	1	0.5893357137392741
6	23	88	n/a	n/a	n/a	j	8	0.01000000000000001	1	j	1	0.6170160901965573
6	24	88	n/a	n/a	n/a	j	8	1.040834085586084e-17	2	j	1	0.60532270630938
6	25	108	n/a	n/a	n/a	j	8	0.01000000000000001	2	j	1	0.5844137442181818
6	26	108	n/a	n/a	n/a	f	8	0.02000000000000001	1	f	1	0.5785133109020535
6	27	88	n/a	n/a	n/a	j	8	0.01000000000000001	1	j	1	0.581051842920715
6	28	88	n/a	n/a	n/a	j	8	1.040834085586084e-17	0	j	1	0.6418642814969644
6	29	68	n/a	n/a	n/a	j	8	0.01000000000000001	2	j	1	0.6218231643142644
6	30	108	n/a	n/a	n/a	j	8	0.02000000000000001	2	j	1	0.5372664423775859
6	31	108	n/a	n/a	n/a	j	8	0.03000000000000001	0	j	1	0.5480489311739802
6	32	68	n/a	n/a	n/a	f	8	0.04000000000000001	0	j	0	0.6550877980480436
6	33	128	n/a	n/a	n/a	j	8	0.05000000000000002	2	j	1	0.7699127507803496
6	34	108	n/a	n/a	n/a	j	8	0.06000000000000002	2	j	1	0.6059145742910914
6	35	108	n/a	n/a	n/a	j	8	0.07000000000000002	1	j	1	0.5849796680849977
6	36	88	n/a	n/a	n/a	j	8	0.06000000000000002	1	j	1	0.6278650073509198
6	37	88	n/a	n/a	n/a	j	8	0.05000000000000002	1	j	1	0.6308679675566964
6	38	88	n/a	n/a	n/a	f	8	0.04000000000000001	2	f	1	0.6574435807997361
6	39	108	n/a	n/a	n/a	j	8	0.05000000000000002	2	j	1	0.5815487725194544
6	40	108	n/a	n/a	n/a	j	8	0.06000000000000002	1	j	1	0.5928507138451096
6	41	88	n/a	n/a	n/a	j	8	0.05000000000000002	1	j	1	0.5727445938682649
6	42	88	n/a	n/a	n/a	j	8	0.04000000000000001	1	j	1	0.6398819799360353
6	43	88	n/a	n/a	n/a	j	8	0.03000000000000001	2	j	1	0.6277301549562253
6	44	108	n/a	n/a	n/a	f	8	0.04000000000000001	1	f	1	0.6212264496716671
6	45	88	n/a	n/a	n/a	j	8	0.03000000000000001	2	j	1	0.5621442840783857
6	46	108	n/a	n/a	n/a	j	8	0.04000000000000001	1	j	1	0.637466896296246
6	47	88	n/a	n/a	n/a	j	8	0.03000000000000001	2	j	1	0.5525338420993648
6	48	108	n/a	n/a	n/a	j	8	0.04000000000000001	1	j	1	0.6193393715657294
6	49	88	n/a	n/a	n/a	j	8	0.03000000000000001	2	j	1	0.6063362374843564
6	50	108	n/a	n/a	n/a	f	8	0.04000000000000001	1	f	1	0.6174448808887973
6	51	88	n/a	n/a	n/a	j	8	0.03000000000000001	1	j	1	0.6209815485926811
6	52	88	n/a	n/a	n/a	j	8	0.02000000000000001	2	j	1	0.6240232824347913
6	53	108	n/a	n/a	n/a	j	8	0.03000000000000001	2	j	1	0.6289515241514891
6	54	108	n/a	n/a	n/a	j	8	0.04000000000000001	2	j	1	0.6092756203142926
6	55	108	n/a	n/a	n/a	j	8	0.05000000000000002	1	j	1	0.5318455475498922
6	56	88	n/a	n/a	n/a	f	8	0.04000000000000001	0	f	1	0.6152758387033828
6	57	68	n/a	n/a	n/a	j	8	0.05000000000000002	1	j	1	0.6191606137726922
6	58	88	n/a	n/a	n/a	j	8	0.04000000000000001	1	j	1	0.6253883421013597
6	59	88	n/a	n/a	n/a	j	8	0.03000000000000001	2	j	1	0.6041603528719861
6	60	108	n/a	n/a	n/a	j	8	0.04000000000000001	1	j	1	0.656259559764294
6	61	88	n/a	n/a	n/a	j	8	0.03000000000000001	2	j	1	0.6370617689681239
6	62	108	n/a	n/a	n/a	f	8	0.04000000000000001	2	f	1	0.6109950595127884
6	63	108	n/a	n/a	n/a	j	8	0.05000000000000002	1	j	1	0.5828556717315223
6	64	88	n/a	n/a	n/a	j	8	0.04000000000000001	1	j	1	0.6258969607879408
6	65	88	n/a	n/a	n/a	j	8	0.03000000000000001	2	j	1	0.6047505102760624
6	66	108	n/a	n/a	n/a	j	8	0.04000000000000001	1	j	1	0.5274689746729564
6	67	88	n/a	n/a	n/a	j	8	0.03000000000000001	0	j	1	0.5869682418415323
6	68	68	n/a	n/a	n/a	f	8	0.04000000000000001	1	f	1	0.6146808346384205
6	69	88	n/a	n/a	n/a	j	8	0.03000000000000001	1	j	1	0.6438782291370444
6	70	88	n/a	n/a	n/a	j	8	0.02000000000000001	2	j	1	0.5918454506027047
6	71	108	n/a	n/a	n/a	j	8	0.03000000000000001	1	j	1	0.514659423584817
7	0	82	j	1	0.07644505164353177	j	2	0.1	2	j	1	0.4298093335528392
7	1	102	n/a	n/a	n/a	f	2	0.11	1	f	1	0.4556989957927726
7	2	82	n/a	n/a	n/a	j	2	0.1	1	j	1	0.4187280597689096
7	3	82	n/a	n/a	n/a	j	2	0.09000000000000001	1	j	1	0.4388683917641174
7	4	82	n/a	n/a	n/a	j	2	0.08000000000000002	1	j	1	0.4187825139088091
7	5	82	n/a	n/a	n/a	f	2	0.07000000000000002	1	f	1	0.3839275913778692
7	6	82	n/a	n/a	n/a	j	2	0.06000000000000002	1	j	1	0.4443052521965001
7	7	82	n/a	n/a	n/a	j	2	0.05000000000000002	2	j	1	0.4241726178734098
7	8	102	n/a	n/a	n/a	j	2	0.06000000000000002	1	j	1	0.4516787981556263
7	9	82	n/a	n/a	n/a	f	2	0.05000000000000002	2	f	1	0.4062999727029819
7	10	102	n/a	n/a	n/a	j	2	0.06000000000000002	1	j	1	0.4500411827175412
7	11	82	n/a	n/a	n/a	j	2	0.05000000000000002	2	j	1	0.4203129316738341
7	12	102	n/a	n/a	n/a	j	2	0.06000000000000002	1	j	1	0.4018800646299496
7	13	82	n/a	n/a	n/a	f	2	0.05000000000000002	1	f	1	0.4306164521549363
7	14	82	n/a	n/a	n/a	j	2	0.04000000000000001	2	j	1	0.4055547208408825
7	15	102	n/a	n/a	n/a	j	2	0.05000000000000002	1	j	1	0.4001090223027859
7	16	82	n/a	n/a	n/a	j	2	0.04000000000000001	1	j	1	0.4203095104603563
7	17	82	n/a	n/a	n/a	f	2	0.03000000000000001	2	f	1	0.4726809880230576
7	18	102	n/a	n/a	n/a	j	2	0.04000000000000001	2	j	1	0.4044679189682938
7	19	102	n/a	n/a	n/a	j	2	0.05000000000000002	1	j	1	0.4379210038750898
7	20	82	n/a	n/a	n/a	j	2	0.04000000000000001	2	j	1	0.4416489738214295
7	21	102	n/a	n/a	n/a	f	2	0.05000000000000002	2	f	1	0.4610737043840345
7	22	102	n/a	n/a	n/a	j	2	0.06000000000000002	2	j	1	0.4173832421947736
7	23	102	n/a	n/a	n/a	j	2	0.07000000000000002	1	j	1	0.4693535838159733
7	24	82	n/a	n/a	n/a	j	2	0.06000000000000002	2	j	1	0.416440986096859
7	25	102	n/a	n/a	n/a	f	2	0.07000000000000002	1	f	1	0.4122733916738071
7	26	82	n/a	n/a	n/a	j	2	0.06000000000000002	1	j	1	0.3992069653468207
7	27	82	n/a	n/a	n/a	j	2	0.05000000000000002	1	j	1	0.4182451000669971
7	28	82	n/a	n/a	n/a	j	2	0.04000000000000001	1	j	1	0.4132267666864209
7	29	82	n/a	n/a	n/a	f	2	0.03000000000000001	1	f	1	0.4179246474523097
7	30	82	n/a	n/a	n/a	j	2	0.02000000000000001	2	j	1	0.4291712793637998
7	31	102	n/a	n/a	n/a	j	2	0.03000000000000001	2	j	1	0.4252987636136822
7	32	102	n/a	n/a	n/a	j	2	0.04000000000000001	1	j	1	0.3880909093131777
7	33	82	n/a	n/a	n/a	f	2	0.03000000000000001	1	f	1	0.4242843771644402
7	34	82	n/a	n/a	n/a	j	2	0.02000000000000001	2	j	1	0.4268109349650331
7	35	102	n/a	n/a	n/a	j	2	0.03000000000000001	2	j	1	0.4311165178660303
7	36	102	n/a	n/a	n/a	j	2	0.04000000000000001	2	j	1	0.3620669649099
7	37	102	n/a	n/a	n/a	f	2	0.05000000000000002	1	f	1	0.4135654656856786
7	38	82	n/a	n/a	n/a	j	2	0.04000000000000001	1	j	1	0.4511356823204551
7	39	82	n/a	n/a	n/a	j	2	0.03000000000000001	2	j	1	0.422712619882077
7	40	102	n/a	n/a	n/a	j	2	0.04000000000000001	1	j	1	0.4350015780364629
7	41	82	n/a	n/a	n/a	f	2	0.03000000000000001	2	f	1	0.431625136610819
7	42	102	n/a	n/a	n/a	j	2	0.04000000000000001	2	j	1	0.4349137671815697
7	43	102	n/a	n/a	n/a	j	2	0.05000000000000002	1	j	1	0.4378229294088669
7	44	82	n/a	n/a	n/a	j	2	0.04000000000000001	2	j	1	0.3606294897908811
7	45	102	n/a	n/a	n/a	f	2	0.05000000000000002	1	f	1	0.4447893523029052
7	46	82	n/a	n/a	n/a	j	2	0.04000000000000001	2	j	1	0.4251402479130775
7	47	102	n/a	n/a	n/a	j	2	0.05000000000000002	1	j	1	0.3963092071353458
7	48	82	n/a	n/a	n/a	j	2	0.04000000000000001	1	j	1	0.4479439858114347
7	49	82	n/a	n/a	n/a	f	2	0.03000000000000001	1	j	0	1.403594372008229
7	50	122	n/a	n/a	n/a	j	2	0.04000000000000001	2	j	1	0.5033426570589654
7	51	102	n/a	n/a	n/a	j	2	0.05000000000000002	2	j	1	0.4900869241973851
7	52	102	n/a	n/a	n/a	j	2	0.06000000000000002	2	j	1	0.4615233073709533
7	53	102	n/a	n/a	n/a	f	2	0.07000000000000002	2	f	1	0.4566629194887355
7	54	102	n/a	n/a	n/a	j	2	0.08000000000000002	1	j	1	0.4514395990991034
7	55	82	n/a	n/a	n/a	j	2	0.07000000000000002	1	j	1	0.4470165549137164
7	56	82	n/a	n/a	n/a	j	2	0.06000000000000002	2	j	1	0.482420580345206
7	57	102	n/a	n/a	n/a	f	2	0.07000000000000002	2	f	1	0.4209099314466584
7	58	102	n/a	n/a	n/a	j	2	0.08000000000000002	1	j	1	0.4244956363982055
7	59	82	n/a	n/a	n/a	j	2	0.07000000000000002	1	j	1	0.4114052616350818
7	60	82	n/a	n/a	n/a	j	2	0.06000000000000002	1	j	1	0.3823344515985809
7	61	82	n/a	n/a	n/a	f	2	0.05000000000000002	1	f	1	0.4352632999944035
7	62	82	n/a	n/a	n/a	j	2	0.04000000000000001	2	j	1	0.4324513569299597
7	63	102	n/a	n/a	n/a	j	2	0.05000000000000002	1	j	1	0.406898683111649
7	64	82	n/a	n/a	n/a	j	2	0.04000000000000001	1	j	1	0.4263023162493482
7	65	82	n/a	n/a	n/a	f	2	0.03000000000000001	2	f	1	0.4698151610209607
7	66	102	n/a	n/a	n/a	j	2	0.04000000000000001	2	j	1	0.4027672963857185
7	67	102	n/a	n/a	n/a	j	2	0.05000000000000002	1	j	1	0.398054020217387
7	68	82	n/a	n/a	n/a	j	2	0.04000000000000001	1	j	1	0.3927457399549894
7	69	82	n/a	n/a	n/a	f	2	0.03000000000000001	1	f	1	0.4201042383210734
7	70	82	n/a	n/a	n/a	j	2	0.02000000000000001	2	j	1	0.3941299013386015
7	71	102	n/a	n/a	n/a	j	2	0.03000000000000001	1	j	1	0.4369616417679936
8	0	84	j	1	0.08379835551022552	j	4	0.1	1	j	1	0.4691503073845524
8	1	84	n/a	n/a	n/a	j	4	0.09000000000000001	1	j	1	0.4323185002140235
8	2	84	n/a	n/a	n/a	f	4	0.08000000000000002	1	f	1	0.4280816264508758
8	3	84	n/a	n/a	n/a	j	4	0.07000000000000002	1	j	1	0.4492352045199368
8	4	84	n/a	n/a	n/a	j	4	0.06000000000000002	2	j	1	0.4440272795036435
8	5	104	n/a	n/a	n/a	j	4	0.07000000000000002	1	j	1	0.4230521741847042
8	6	84	n/a	n/a	n/a	j	4	0.06000000000000002	1	j	1	0.434000021108659
8	7	84	n/a	n/a	n/a	j	4	0.05000000000000002	1	j	1	0.3649747016606852
8	8	84	n/a	n/a	n/a	f	4	0.04000000000000001	1	f	1	0.4316416724177543
8	9	84	n/a	n/a	n/a	j	4	0.03000000000000001	2	j	1	0.4197076639975421
8	10	104	n/a	n/a	n/a	j	4	0.04000000000000001	1	j	1	0.4468315248959698
8	11	84	n/a	n/a	n/a	j	4	0.03000000000000001	2	j	1	0.4018430016294587
8	12	104	n/a	n/a	n/a	j	4	0.04000000000000001	1	j	1	0.4127703213016503
8	13	84	n/a	n/a	n/a	j	4	0.03000000000000001	1	j	1	0.360975886520464
8	14	84	n/a	n/a	n/a	f	4	0.02000000000000001	0	f	1	0.4363039156596642
8	15	64	n/a	n/a	n/a	j	4	0.03000000000000001	2	j	1	0.4155226784350816
8	16	104	n/a	n/a	n/a	j	4	0.04000000000000001	1	j	1	0.4116008403652813
8	17	84	n/a	n/a	n/a	j	4	0.03000000000000001	1	j	1	0.4067239166761283
8	18	84	n/a	n/a	n/a	j	4	0.02000000000000001	2	j	1	0.4267484980227891
8	19	104	n/a	n/a	n/a	j	4	0.03000000000000001	2	j	1	0.3736759591265582
8	20	104	n/a	n/a	n/a	f	4	0.04000000000000001	1	f	1	0.4177515916526318
8	21	84	n/a	n/a	n/a	j	4	0.03000000000000001	1	j	1	0.4056128812662791
8	22	84	n/a	n/a	n/a	j	4	0.02000000000000001	2	j	1	0.4084966696100309
8	23	104	n/a	n/a	n/a	j	4	0.03000000000000001	1	j	1	0.3957085010188166
8	24	84	n/a	n/a	n/a	j	4	0.02000000000000001	1	j	1	0.4312539361708332
8	25	84	n/a	n/a	n/a	j	4	0.01000000000000001	2	j	1	0.4105331402097363
8	26	104	n/a	n/a	n/a	f	4	0.02000000000000001	2	f	1	0.4235950049478561
8	27	104	n/a	n/a	n/a	j	4	0.03000000000000001	2	j	1	0.4024927449354436
8	28	104	n/a	n/a	n/a	j	4	0.04000000000000001	1	j	1	0.4463870537292678
8	29	84	n/a	n/a	n/a	j	4	0.03000000000000001	2	j	1	0.3533716945094056
8	30	104	n/a	n/a	n/a	j	4	0.04000000000000001	1	j	1	0.4374830899760127
8	31	84	n/a	n/a	n/a	j	4	0.03000000000000001	2	j	1	0.4086087139730807
8	32	104	n/a	n/a	n/a	f	4	0.04000000000000001	1	f	1	0.419353569537634
8	33	84	n/a	n/a	n/a	j	4	0.03000000000000001	2	j	1	0.3922473848506343
8	34	104	n/a	n/a	n/a	j	4	0.04000000000000001	1	j	1	0.4194225637766067
8	35	84	n/a	n/a	n/a	j	4	0.03000000000000001	1	j	1	0.3990872232534457
8	36	84	n/a	n/a	n/a	j	4	0.02000000000000001	1	j	1	0.4263616170792375
8	37	84	n/a	n/a	n/a	j	4	0.01000000000000001	2	j	1	0.477208378870273
8	38	104	n/a	n/a	n/a	f	4	0.02000000000000001	2	f	1	0.3932227125624195
8	39	104	n/a	n/a	n/a	j	4	0.03000000000000001	1	j	1	0.3957261772593483
8	40	84	n/a	n/a	n/a	j	4	0.02000000000000001	1	j	1	0.4231465423363261
8	41	84	n/a	n/a	n/a	j	4	0.01000000000000001	2	j	1	0.3712010044546332
8	42	104	n/a	n/a	n/a	j	4	0.02000000000000001	1	j	1	0.4229954392358195
8	43	84	n/a	n/a	n/a	j	4	0.01000000000000001	2	j	1	0.3871500787208788
8	44	104	n/a	n/a	n/a	f	4	0.02000000000000001	1	f	1	0.4071102274174336
8	45	84	n/a	n/a	n/a	j	4	0.01000000000000001	2	j	1	0.4417926643218379
8	46	104	n/a	n/a	n/a	j	4	0.02000000000000001	2	j	1	0.3791487421840429
8	47	104	n/a	n/a	n/a	j	4	0.03000000000000001	1	j	1	0.4001398131076712
8	48	84	n/a	n/a	n/a	j	4	0.02000000000000001	1	j	1	0.4342788490757812
8	49	84	n/a	n/a	n/a	j	4	0.01000000000000001	2	j	1	0.4571544321952388
8	50	104	n/a	n/a	n/a	f	4	0.02000000000000001	2	f	1	0.3644541086978279
8	51	104	n/a	n/a	n/a	j	4	0.03000000000000001	1	j	1	0.457076314749429
8	52	84	n/a	n/a	n/a	j	4	0.02000000000000001	2	j	1	0.3728688405244611
8	53	104	n/a	n/a	n/a	j	4	0.03000000000000001	1	j	1	0.4159990808402654
8	54	84	n/a	n/a	n/a	j	4	0.02000000000000001	2	j	1	0.419494979258161
8	55	104	n/a	n/a	n/a	j	4	0.03000000000000001	2	j	1	0.4009409446443897
8	56	104	n/a	n/a	n/a	f	4	0.04000000000000001	1	f	1	0.4210071506095119
8	57	84	n/a	n/a	n/a	j	4	0.03000000000000001	2	j	1	0.4477977294300217
8	58	104	n/a	n/a	n/a	j	4	0.04000000000000001	2	j	1	0.4217427090625279
8	59	104	n/a	n/a	n/a	j	4	0.05000000000000002	1	j	1	0.3925792414520402
8	60	84	n/a	n/a	n/a	j	4	0.04000000000000001	1	j	1	1.619672368571628
8	61	84	n/a	n/a	n/a	j	4	0.03000000000000001	2	j	1	0.4236007069412153
8	62	104	n/a	n/a	n/a	f	4	0.04000000000000001	1	f	1	0.4266116499202326
8	63	84	n/a	n/a	n/a	j	4	0.03000000000000001	2	j	1	0.4225509680691175
8	64	104	n/a	n/a	n/a	j	4	0.04000000000000001	1	j	1	0.4815122511936352
8	65	84	n/a	n/a	n/a	j	4	0.03000000000000001	2	j	1	0.4134308983921073
8	66	104	n/a	n/a	n/a	j	4	0.04000000000000001	1	j	1	0.4401094328495674
8	67	84	n/a	n/a	n/a	j	4	0.03000000000000001	2	j	1	0.3806688963377383
8	68	104	n/a	n/a	n/a	f	4	0.04000000000000001	1	f	1	0.3788867351249792
8	69	84	n/a	n/a	n/a	j	4	0.03000000000000001	1	j	1	0.3893533329246566
8	70	84	n/a	n/a	n/a	j	4	0.02000000000000001	1	j	1	0.3925293489301112
8	71	84	n/a	n/a	n/a	j	4	0.01000000000000001	1	j	1	0.4044066224305425
9	0	83	f	1	0.06919352858676575	f	3	0.1	1	f	1	0.4383728876709938
9	1	83	n/a	n/a	n/a	f	3	0.09000000000000001	1	f	1	0.4480543195677456
9	2	83	n/a	n/a	n/a	j	3	0.08000000000000002	1	j	1	0.4055014071054757
9	3	83	n/a	n/a	n/a	f	3	0.07000000000000002	1	f	1	0.4486957949702628
9	4	83	n/a	n/a	n/a	f	3	0.06000000000000002	2	f	1	0.436553378298413
9	5	103	n/a	n/a	n/a	f	3	0.07000000000000002	1	f	1	0.3994475898798555
9	6	83	n/a	n/a	n/a	f	3	0.06000000000000002	1	f	1	0.4034167546196841
9	7	83	n/a	n/a	n/a	f	3	0.05000000000000002	1	f	1	0.4176999885239638
9	8	83	n/a	n/a	n/a	j	3	0.04000000000000001	1	j	1	0.3571025154669769
9	9	83	n/a	n/a	n/a	f	3	0.03000000000000001	1	f	1	0.4722604652342852
9	10	83	n/a	n/a	n/a	f	3	0.02000000000000001	2	f	1	0.436332140583545
9	11	103	n/a	n/a	n/a	f	3	0.03000000000000001	2	f	1	0.3445213296217844
9	12	103	n/a	n/a	n/a	f	3	0.04000000000000001	0	f	1	0.3953025183873251
9	13	63	n/a	n/a	n/a	f	3	0.05000000000000002	1	f	1	0.4060727478936315
9	14	83	n/a	n/a	n/a	j	3	0.04000000000000001	1	j	1	0.4022042235301342
9	15	83	n/a	n/a	n/a	f	3	0.03000000000000001	1	f	1	0.3733549363387283
9	16	83	n/a	n/a	n/a	f	3	0.02000000000000001	1	f	1	0.3763872618437745
9	17	83	n/a	n/a	n/a	f	3	0.01000000000000001	0	f	1	0.3882237660291139
9	18	63	n/a	n/a	n/a	f	3	0.02000000000000001	1	f	1	0.3911893780750688
9	19	83	n/a	n/a	n/a	f	3	0.01000000000000001	1	f	1	0.4028981573646888
9	20	83	n/a	n/a	n/a	j	3	1.040834085586084e-17	2	j	1	0.4172626448562369
9	21	103	n/a	n/a	n/a	f	3	0.01000000000000001	2	f	1	0.4130782294669189
9	22	103	n/a	n/a	n/a	f	3	0.02000000000000001	2	f	1	0.4161952297436073
9	23	103	n/a	n/a	n/a	f	3	0.03000000000000001	2	f	1	0.3871110200125258
9	24	103	n/a	n/a	n/a	f	3	0.04000000000000001	1	f	1	0.3522044943820219
9	25	83	n/a	n/a	n/a	f	3	0.03000000000000001	0	f	1	0.355533324094722
9	26	63	n/a	n/a	n/a	j	3	0.04000000000000001	0	f	0	0.3270099063811358
9	27	123	n/a	n/a	n/a	f	3	0.03000000000000001	0	j	0	0.2176731320796534
9	28	123	n/a	n/a	n/a	f	3	0.04000000000000001	0	f	1	0.6129847736447118
9	29	63	n/a	n/a	n/a	f	3	0.05000000000000002	2	f	1	0.3690878419147339
9	30	103	n/a	n/a	n/a	f	3	0.06000000000000002	1	f	1	0.3889385121583473
9	31	83	n/a	n/a	n/a	f	3	0.05000000000000002	1	f	1	0.3919200898671988
9	32	83	n/a	n/a	n/a	j	3	0.04000000000000001	1	f	0	0.4107717690349091
9	33	123	n/a	n/a	n/a	f	3	0.03000000000000001	1	j	0	0.07778815858182497
9	34	123	n/a	n/a	n/a	f	3	0.02000000000000001	0	f	1	0.4668461277324241
9	35	63	n/a	n/a	n/a	f	3	0.03000000000000001	2	f	1	0.4129755934409332
9	36	103	n/a	n/a	n/a	f	3	0.04000000000000001	1	f	1	0.4636766690236982
9	37	83	n/a	n/a	n/a	f	3	0.03000000000000001	2	f	1	0.4102756947104353
9	38	103	n/a	n/a	n/a	j	3	0.04000000000000001	1	j	1	0.4057451677508652
9	39	83	n/a	n/a	n/a	f	3	0.03000000000000001	1	f	1	0.4015695905545726
9	40	83	n/a	n/a	n/a	f	3	0.02000000000000001	1	f	1	0.4046347025723662
9	41	83	n/a	n/a	n/a	f	3	0.01000000000000001	2	f	1	0.5426619632635266
9	42	103	n/a	n/a	n/a	f	3	0.02000000000000001	2	f	1	0.3946188481349964
9	43	103	n/a	n/a	n/a	f	3	0.03000000000000001	1	f	1	0.4055581420543604
9	44	83	n/a	n/a	n/a	j	3	0.02000000000000001	2	j	1	0.3683688192686532
9	45	103	n/a	n/a	n/a	f	3	0.03000000000000001	1	f	1	0.3792482421558816
9	46	83	n/a	n/a	n/a	f	3	0.02000000000000001	1	f	1	0.3750056663702708
9	47	83	n/a	n/a	n/a	f	3	0.01000000000000001	0	f	1	0.3704896795388777
9	48	63	n/a	n/a	n/a	f	3	0.02000000000000001	1	f	1	0.4165912339230999
9	49	83	n/a	n/a	n/a	f	3	0.01000000000000001	2	f	1	0.3409783896931913
9	50	103	n/a	n/a	n/a	j	3	0.02000000000000001	0	j	1	0.360618655977305
9	51	63	n/a	n/a	n/a	f	3	0.03000000000000001	1	f	1	0.363202804030152
9	52	83	n/a	n/a	n/a	f	3	0.02000000000000001	0	f	1	0.4139657463529147
9	53	63	n/a	n/a	n/a	f	3	0.03000000000000001	2	f	1	0.3773913846525829
9	54	103	n/a	n/a	n/a	f	3	0.04000000000000001	1	f	1	0.3903560302569531
9	55	83	n/a	n/a	n/a	f	3	0.03000000000000001	1	f	1	0.3593385561835021
9	56	83	n/a	n/a	n/a	j	3	0.02000000000000001	0	j	1	0.3872641187917907
9	57	63	n/a	n/a	n/a	f	3	0.03000000000000001	1	f	1	0.3503065824916121
9	58	83	n/a	n/a	n/a	f	3	0.02000000000000001	0	f	1	0.3451408523251303
9	59	63	n/a	n/a	n/a	f	3	0.03000000000000001	0	f	1	0.4039926569676027
9	60	63	n/a	n/a	n/a	f	3	0.04000000000000001	1	f	1	0.3748682480945718
9	61	83	n/a	n/a	n/a	f	3	0.03000000000000001	1	f	1	0.4342269608459901
9	62	83	n/a	n/a	n/a	j	3	0.02000000000000001	2	j	1	0.3731479535927065
9	63	103	n/a	n/a	n/a	f	3	0.03000000000000001	1	f	1	0.4332670285366476
9	64	83	n/a	n/a	n/a	f	3	0.02000000000000001	2	f	1	0.4195041024649981
9	65	103	n/a	n/a	n/a	f	3	0.03000000000000001	2	f	1	0.4162143314897548
9	66	103	n/a	n/a	n/a	f	3	0.04000000000000001	1	f	1	0.4350594533607364
9	67	83	n/a	n/a	n/a	f	3	0.03000000000000001	2	f	1	0.3512006566452328
9	68	103	n/a	n/a	n/a	j	3	0.04000000000000001	1	j	1	0.4110300698084757
9	69	83	n/a	n/a	n/a	f	3	0.03000000000000001	1	f	1	0.4059652650903445
9	70	83	n/a	n/a	n/a	f	3	0.02000000000000001	2	f	1	0.4491043435409665
9	71	103	n/a	n/a	n/a	f	3	0.03000000000000001	2	f	1	0.3889638860709965
10	0	109	f	1	0.06391831993823871	f	9	0.1	0	f	1	0.9933631528983824
10	1	69	n/a	n/a	n/a	j	9	0.11	1	j	1	0.9983940306701697
10	2	89	n/a	n/a	n/a	f	9	0.1	1	f	1	0.985209002654301
10	3	89	n/a	n/a	n/a	f	9	0.09000000000000001	1	f	1	0.9582094454381149
10	4	89	n/a	n/a	n/a	f	9	0.08000000000000002	1	f	1	0.9798964459041599
10	5	89	n/a	n/a	n/a	j	9	0.07000000000000002	1	j	1	0.9687504543690011
10	6	89	n/a	n/a	n/a	f	9	0.06000000000000002	1	f	1	1.004988112748833
10	7	89	n/a	n/a	n/a	f	9	0.05000000000000002	1	f	1	0.9930615168996155
10	8	89	n/a	n/a	n/a	f	9	0.04000000000000001	1	f	1	0.9958081720687915
10	9	89	n/a	n/a	n/a	j	9	0.03000000000000001	1	j	1	1.870772356342059
10	10	89	n/a	n/a	n/a	f	9	0.02000000000000001	2	f	1	0.9848611804482061
10	11	109	n/a	n/a	n/a	f	9	0.03000000000000001	1	f	1	0.9722551908926107
10	12	89	n/a	n/a	n/a	f	9	0.02000000000000001	1	f	1	0.9752678444783669
10	13	89	n/a	n/a	n/a	j	9	0.01000000000000001	1	j	1	0.9405768545984756
10	14	89	n/a	n/a	n/a	f	9	1.040834085586084e-17	0	f	1	0.9831728171848226
10	15	69	n/a	n/a	n/a	f	9	0.01000000000000001	1	f	1	0.9324247000622563
10	16	89	n/a	n/a	n/a	f	9	1.040834085586084e-17	0	f	1	0.9841435832786374
10	17	69	n/a	n/a	n/a	j	9	0.01000000000000001	1	j	1	1.019298716273624
10	18	89	n/a	n/a	n/a	f	9	1.040834085586084e-17	2	f	1	0.9352394941379316
10	19	109	n/a	n/a	n/a	f	9	0.01000000000000001	0	f	1	0.9231620803184342
10	20	69	n/a	n/a	n/a	f	9	0.02000000000000001	0	f	1	0.9427806790044997
10	21	69	n/a	n/a	n/a	j	9	0.03000000000000001	0	j	1	0.9698372562706936
10	22	69	n/a	n/a	n/a	f	9	0.04000000000000001	1	f	1	1.012578049732838
10	23	89	n/a	n/a	n/a	f	9	0.03000000000000001	2	f	1	0.9200393780483864
10	24	109	n/a	n/a	n/a	f	9	0.04000000000000001	0	f	1	1.076048192189774
10	25	69	n/a	n/a	n/a	j	9	0.05000000000000002	2	j	1	0.9500795287021901
10	26	109	n/a	n/a	n/a	f	9	0.06000000000000002	1	f	1	1.016922691371292
10	27	89	n/a	n/a	n/a	f	9	0.05000000000000002	1	f	1	0.9798437023709994
10	28	89	n/a	n/a	n/a	f	9	0.04000000000000001	1	f	1	0.9827098144742195
10	29	89	n/a	n/a	n/a	j	9	0.03000000000000001	1	j	1	0.9861378590576351
10	30	89	n/a	n/a	n/a	f	9	0.02000000000000001	1	f	1	0.9254970507754479
10	31	89	n/a	n/a	n/a	f	9	0.01000000000000001	0	f	1	0.9524638215079904
10	32	69	n/a	n/a	n/a	f	9	0.02000000000000001	0	f	1	1.076347832480678
10	33	69	n/a	n/a	n/a	j	9	0.03000000000000001	0	f	0	0.9989990132744424
10	34	129	n/a	n/a	n/a	f	9	0.04000000000000001	1	f	1	1.107461670413613
10	35	89	n/a	n/a	n/a	f	9	0.03000000000000001	2	f	1	1.016409511037637
10	36	109	n/a	n/a	n/a	f	9	0.04000000000000001	1	f	1	1.010795603418956
10	37	89	n/a	n/a	n/a	j	9	0.03000000000000001	1	j	1	0.9340529071632773
10	38	89	n/a	n/a	n/a	f	9	0.02000000000000001	0	f	1	0.968784096185118
10	39	69	n/a	n/a	n/a	f	9	0.03000000000000001	1	f	1	1.070047973800683
10	40	89	n/a	n/a	n/a	f	9	0.02000000000000001	2	f	1	0.9529855548462365
10	41	109	n/a	n/a	n/a	j	9	0.03000000000000001	0	j	1	1.051814391801599
10	42	69	n/a	n/a	n/a	f	9	0.04000000000000001	2	f	1	0.9265217008360196
10	43	109	n/a	n/a	n/a	f	9	0.05000000000000002	0	f	1	1.025390736933332
10	44	69	n/a	n/a	n/a	f	9	0.06000000000000002	1	f	1	0.965475508623058
10	45	89	n/a	n/a	n/a	j	9	0.05000000000000002	1	j	1	1.016379575536121
10	46	89	n/a	n/a	n/a	f	9	0.04000000000000001	1	f	1	0.9556669220328331
10	47	89	n/a	n/a	n/a	f	9	0.03000000000000001	0	f	1	0.9825339076924138
10	48	69	n/a	n/a	n/a	f	9	0.04000000000000001	1	f	1	0.9545316531148273
10	49	89	n/a	n/a	n/a	j	9	0.03000000000000001	0	j	1	0.9674030709429644
10	50	69	n/a	n/a	n/a	f	9	0.04000000000000001	1	f	1	0.9702090268838219
10	51	89	n/a	n/a	n/a	f	9	0.03000000000000001	1	f	1	0.9844925459183287
10	52	89	n/a	n/a	n/a	f	9	0.02000000000000001	1	f	1	0.9479375710361637
10	53	89	n/a	n/a	n/a	j	9	0.01000000000000001	0	j	1	0.991259113594424
10	54	69	n/a	n/a	n/a	f	9	0.02000000000000001	1	f	1	0.9481385666585993
10	55	89	n/a	n/a	n/a	f	9	0.01000000000000001	0	f	1	0.9763227151415776
10	56	69	n/a	n/a	n/a	f	9	0.02000000000000001	1	f	1	1.012012981198495
10	57	89	n/a	n/a	n/a	j	9	0.01000000000000001	2	j	1	0.9921634513593744
10	58	109	n/a	n/a	n/a	f	9	0.02000000000000001	1	f	1	0.9476382158463821
10	59	89	n/a	n/a	n/a	f	9	0.01000000000000001	0	f	1	0.966998798889108
10	60	69	n/a	n/a	n/a	f	9	0.02000000000000001	1	f	1	0.9055009794537909
10	61	89	n/a	n/a	n/a	j	9	0.01000000000000001	0	j	1	0.924759781715693
10	62	69	n/a	n/a	n/a	f	9	0.02000000000000001	0	f	1	0.9915065805253107
10	63	69	n/a	n/a	n/a	f	9	0.03000000000000001	1	f	1	1.954715257597854
10	64	89	n/a	n/a	n/a	f	9	0.02000000000000001	2	f	1	1.01554879359901
10	65	109	n/a	n/a	n/a	j	9	0.03000000000000001	1	j	1	1.002018224186031
10	66	89	n/a	n/a	n/a	f	9	0.02000000000000001	1	f	1	0.9894116644281894
10	67	89	n/a	n/a	n/a	f	9	0.01000000000000001	1	f	1	0.9691686963487882
10	68	89	n/a	n/a	n/a	f	9	1.040834085586084e-17	0	f	1	1.004382274841191
10	69	69	n/a	n/a	n/a	j	9	0.01000000000000001	2	j	1	1.007452518708305
10	70	109	n/a	n/a	n/a	f	9	0.02000000000000001	2	f	1	1.018087610718794
10	71	109	n/a	n/a	n/a	f	9	0.03000000000000001	1	f	1	0.9992575991200283
11	0	81	f	1	0.03748810777324252	f	1	0.1	2	f	1	0.4622759718622547
11	1	101	n/a	n/a	n/a	j	1	0.11	1	j	1	0.4412586716935039
11	2	81	n/a	n/a	n/a	f	1	0.1	1	f	1	0.4041859548888169
11	3	81	n/a	n/a	n/a	f	1	0.09000000000000001	1	f	1	0.462847597693326
11	4	81	n/a	n/a	n/a	f	1	0.08000000000000002	1	f	1	0.4262213477632031
11	5	81	n/a	n/a	n/a	j	1	0.07000000000000002	1	j	1	0.4063156532065477
11	6	81	n/a	n/a	n/a	f	1	0.06000000000000002	1	f	1	0.4019504843745381
11	7	81	n/a	n/a	n/a	f	1	0.05000000000000002	1	f	1	0.4620630019926466
11	8	81	n/a	n/a	n/a	f	1	0.04000000000000001	2	f	1	0.4015989558538422
11	9	101	n/a	n/a	n/a	j	1	0.05000000000000002	1	j	1	0.4210119972995017
11	10	81	n/a	n/a	n/a	f	1	0.04000000000000001	1	f	1	0.4332490672240965
11	11	81	n/a	n/a	n/a	f	1	0.03000000000000001	2	f	1	0.4277454933617264
11	12	101	n/a	n/a	n/a	f	1	0.04000000000000001	1	f	1	0.438558772963006
11	13	81	n/a	n/a	n/a	j	1	0.03000000000000001	2	j	1	0.4419434823212214
11	14	101	n/a	n/a	n/a	f	1	0.04000000000000001	2	f	1	0.388884343119571
11	15	101	n/a	n/a	n/a	f	1	0.05000000000000002	1	f	1	0.4561078294354957
11	16	81	n/a	n/a	n/a	f	1	0.04000000000000001	2	f	1	0.4208862681116443
11	17	101	n/a	n/a	n/a	j	1	0.05000000000000002	1	j	1	0.3999898504407611
11	18	81	n/a	n/a	n/a	f	1	0.04000000000000001	1	f	1	0.4434108929417562
11	19	81	n/a	n/a	n/a	f	1	0.03000000000000001	2	f	1	0.4387951210082974
11	20	101	n/a	n/a	n/a	f	1	0.04000000000000001	2	f	1	0.3848875236872118
11	21	101	n/a	n/a	n/a	j	1	0.05000000000000002	1	j	1	0.4118947786628269
11	22	81	n/a	n/a	n/a	f	1	0.04000000000000001	1	f	1	0.3988557218981441
11	23	81	n/a	n/a	n/a	f	1	0.03000000000000001	1	f	1	0.4493922947149258
11	24	81	n/a	n/a	n/a	f	1	0.02000000000000001	2	f	1	0.4686371270800009
11	25	101	n/a	n/a	n/a	j	1	0.03000000000000001	2	j	1	0.4157456267857924
11	26	101	n/a	n/a	n/a	f	1	0.04000000000000001	1	f	1	0.4506119533034507
11	27	81	n/a	n/a	n/a	f	1	0.03000000000000001	2	f	1	0.3816239819279872
11	28	101	n/a	n/a	n/a	f	1	0.04000000000000001	1	f	1	0.4407677291601431
11	29	81	n/a	n/a	n/a	j	1	0.03000000000000001	2	j	1	0.4195708158949856
11	30	101	n/a	n/a	n/a	f	1	0.04000000000000001	1	f	1	0.4578745952749159
11	31	81	n/a	n/a	n/a	f	1	0.03000000000000001	2	f	1	0.4285682924673893
11	32	101	n/a	n/a	n/a	f	1	0.04000000000000001	2	f	1	0.4315564274729695
11	33	101	n/a	n/a	n/a	j	1	0.05000000000000002	1	j	1	0.4274977413006127
11	34	81	n/a	n/a	n/a	f	1	0.04000000000000001	2	f	1	0.4086292411957402
11	35	101	n/a	n/a	n/a	f	1	0.05000000000000002	1	f	1	0.4122779532917775
11	36	81	n/a	n/a	n/a	f	1	0.04000000000000001	1	f	1	0.4497538017458282
11	37	81	n/a	n/a	n/a	j	1	0.03000000000000001	2	j	1	0.3963582443539053
11	38	101	n/a	n/a	n/a	f	1	0.04000000000000001	1	f	1	0.4793004439852666
11	39	81	n/a	n/a	n/a	f	1	0.03000000000000001	2	f	1	0.4333283250743989
11	40	101	n/a	n/a	n/a	f	1	0.04000000000000001	2	f	1	0.4282965919992421
11	41	101	n/a	n/a	n/a	j	1	0.05000000000000002	1	j	1	0.3913926545355935
11	42	81	n/a	n/a	n/a	f	1	0.04000000000000001	1	f	1	0.4362386277061887
11	43	81	n/a	n/a	n/a	f	1	0.03000000000000001	2	f	1	0.4390933358226903
11	44	101	n/a	n/a	n/a	f	1	0.04000000000000001	2	f	1	0.4421746985753998
11	45	101	n/a	n/a	n/a	j	1	0.05000000000000002	2	j	1	0.4231342830171343
11	46	101	n/a	n/a	n/a	f	1	0.06000000000000002	1	f	1	0.4417895282094833
11	47	81	n/a	n/a	n/a	f	1	0.05000000000000002	2	f	1	0.4528012375521939
11	48	101	n/a	n/a	n/a	f	1	0.06000000000000002	2	f	1	0.4642257719824556
11	49	101	n/a	n/a	n/a	j	1	0.07000000000000002	2	j	1	0.4585132196662016
11	50	101	n/a	n/a	n/a	f	1	0.08000000000000002	1	f	1	0.4057237852539402
11	51	81	n/a	n/a	n/a	f	1	0.07000000000000002	1	f	1	0.3928212915197946
11	52	81	n/a	n/a	n/a	f	1	0.06000000000000002	1	f	1	0.4439548640802968
11	53	81	n/a	n/a	n/a	j	1	0.05000000000000002	2	j	1	0.3669532968779095
11	54	101	n/a	n/a	n/a	f	1	0.06000000000000002	1	f	1	0.3944859914772678
11	55	81	n/a	n/a	n/a	f	1	0.05000000000000002	1	f	1	0.4137236962851603
11	56	81	n/a	n/a	n/a	f	1	0.04000000000000001	1	f	1	0.40082348336
11	57	81	n/a	n/a	n/a	j	1	0.03000000000000001	1	j	1	0.3637524771620519
11	58	81	n/a	n/a	n/a	f	1	0.02000000000000001	0	f	1	0.3747790117340628
11	59	61	n/a	n/a	n/a	f	1	0.03000000000000001	1	f	1	0.3935408843390178
11	60	81	n/a	n/a	n/a	f	1	0.02000000000000001	1	f	1	0.4127178628696129
11	61	81	n/a	n/a	n/a	j	1	0.01000000000000001	2	j	1	0.4091449874104001
11	62	101	n/a	n/a	n/a	f	1	0.02000000000000001	2	f	1	0.3793018409633078
11	63	101	n/a	n/a	n/a	f	1	0.03000000000000001	1	f	1	0.4386973316431977
11	64	81	n/a	n/a	n/a	f	1	0.02000000000000001	2	f	1	0.3787342065188568
11	65	101	n/a	n/a	n/a	j	1	0.03000000000000001	1	j	1	0.3929681181034539
11	66	81	n/a	n/a	n/a	f	1	0.02000000000000001	1	f	1	0.4065805113059469
11	67	81	n/a	n/a	n/a	f	1	0.01000000000000001	2	f	1	0.401741505949758
11	68	101	n/a	n/a	n/a	f	1	0.02000000000000001	1	f	1	0.4206111464591231
11	69	81	n/a	n/a	n/a	j	1	0.01000000000000001	2	j	1	0.4090526149666402
11	70	101	n/a	n/a	n/a	f	1	0.02000000000000001	2	f	1	0.4125277010316495
11	71	101	n/a	n/a	n/a	f	1	0.03000000000000001	1	f	1	0.4395369517151266
12	0	91	f	1	0.05556345917284489	f	11	0.06000000000000003	1	j	0	0.9849860543035902
12	1	131	n/a	n/a	n/a	f	11	0.07000000000000003	1	f	1	1.05193983585923
12	2	91	n/a	n/a	n/a	j	11	0.06000000000000003	2	j	1	0.9909457884787116
12	3	111	n/a	n/a	n/a	f	11	0.07000000000000003	1	f	1	1.018706563219894
12	4	91	n/a	n/a	n/a	f	11	0.06000000000000003	1	f	1	0.9574248497374356
12	5	91	n/a	n/a	n/a	f	11	0.05000000000000003	1	f	1	1.048809435887961
12	6	91	n/a	n/a	n/a	f	11	0.04000000000000003	2	f	1	0.9314482319459785
12	7	111	n/a	n/a	n/a	f	11	0.05000000000000003	0	f	1	1.022545437124791
12	8	71	n/a	n/a	n/a	j	11	0.06000000000000003	1	j	1	1.041550500201993
12	9	91	n/a	n/a	n/a	f	11	0.05000000000000003	2	f	1	1.012018112989608
12	10	111	n/a	n/a	n/a	f	11	0.06000000000000003	1	f	1	1.00630213948898
12	11	91	n/a	n/a	n/a	f	11	0.05000000000000003	1	f	1	1.00141609259299
12	12	91	n/a	n/a	n/a	f	11	0.04000000000000003	1	f	1	0.9958076018665452
12	13	91	n/a	n/a	n/a	f	11	0.03000000000000003	1	f	1	0.9363539507321548
12	14	91	n/a	n/a	n/a	j	11	0.02000000000000002	0	j	1	1.020120660105022
12	15	71	n/a	n/a	n/a	f	11	0.03000000000000003	2	f	1	0.9907060192199424
12	16	111	n/a	n/a	n/a	f	11	0.04000000000000003	1	f	1	1.009581361751771
12	17	91	n/a	n/a	n/a	f	11	0.03000000000000003	1	f	1	0.9727247508999426
12	18	91	n/a	n/a	n/a	f	11	0.02000000000000002	1	f	1	0.9848985285498202
12	19	91	n/a	n/a	n/a	f	11	0.01000000000000002	1	f	1	0.9480556025227997
12	20	91	n/a	n/a	n/a	j	11	2.42861286636753e-17	0	j	1	0.9267859887040686
12	21	71	n/a	n/a	n/a	f	11	0.01000000000000002	0	f	1	0.9457405890570953
12	22	71	n/a	n/a	n/a	f	11	0.02000000000000002	0	f	1	0.9333427226520143
12	23	71	n/a	n/a	n/a	f	11	0.03000000000000003	0	f	1	1.12083543476183
12	24	71	n/a	n/a	n/a	f	11	0.04000000000000003	2	f	1	0.9790990207111463
12	25	111	n/a	n/a	n/a	f	11	0.05000000000000003	1	f	1	0.9755495234567206
12	26	91	n/a	n/a	n/a	j	11	0.04000000000000003	1	j	1	1.002500328584574
12	27	91	n/a	n/a	n/a	f	11	0.03000000000000003	1	f	1	0.9734012936241925
12	28	91	n/a	n/a	n/a	f	11	0.02000000000000002	1	f	1	0.9602091380802449
12	29	91	n/a	n/a	n/a	f	11	0.01000000000000002	0	f	1	0.9552204551291652
12	30	71	n/a	n/a	n/a	f	11	0.02000000000000002	0	f	1	1.030244567489717
12	31	71	n/a	n/a	n/a	f	11	0.03000000000000003	2	f	1	0.9617127564270049
12	32	111	n/a	n/a	n/a	j	11	0.04000000000000003	1	j	1	1.007264067477081
12	33	91	n/a	n/a	n/a	f	11	0.03000000000000003	1	f	1	1.01903214759659
12	34	91	n/a	n/a	n/a	f	11	0.02000000000000002	2	f	1	0.9495318512490485
12	35	111	n/a	n/a	n/a	f	11	0.03000000000000003	0	f	1	0.9450925563578494
12	36	71	n/a	n/a	n/a	f	11	0.04000000000000003	0	f	1	1.00382091262145
12	37	71	n/a	n/a	n/a	f	11	0.05000000000000003	1	f	1	0.959846775745973
12	38	91	n/a	n/a	n/a	j	11	0.04000000000000003	1	j	1	0.995178670855239
12	39	91	n/a	n/a	n/a	f	11	0.03000000000000003	1	f	1	1.030418193491641
12	40	91	n/a	n/a	n/a	f	11	0.02000000000000002	2	f	1	0.9137794334092177
12	41	111	n/a	n/a	n/a	f	11	0.03000000000000003	0	f	1	1.818753547704546
12	42	71	n/a	n/a	n/a	f	11	0.04000000000000003	2	f	1	1.047475737257628
12	43	111	n/a	n/a	n/a	f	11	0.05000000000000003	2	f	1	0.9624739739228971
12	44	111	n/a	n/a	n/a	j	11	0.06000000000000003	1	j	1	1.00644269384793
12	45	91	n/a	n/a	n/a	f	11	0.05000000000000003	1	f	1	0.8820255455502775
12	46	91	n/a	n/a	n/a	f	11	0.04000000000000003	0	f	1	0.9732635902182665
12	47	71	n/a	n/a	n/a	f	11	0.05000000000000003	1	f	1	1.008426991116721
12	48	91	n/a	n/a	n/a	f	11	0.04000000000000003	1	j	0	0.8991908571624663
12	49	131	n/a	n/a	n/a	f	11	0.03000000000000003	0	f	1	0.9741545282886364
12	50	71	n/a	n/a	n/a	j	11	0.04000000000000003	1	j	1	0.9778240527084563
12	51	91	n/a	n/a	n/a	f	11	0.03000000000000003	1	f	1	0.9580797248636372
12	52	91	n/a	n/a	n/a	f	11	0.02000000000000002	0	f	1	1.025159520679154
12	53	71	n/a	n/a	n/a	f	11	0.03000000000000003	2	f	1	0.8768851892964449
12	54	111	n/a	n/a	n/a	f	11	0.04000000000000003	0	f	1	0.9360289365286008
12	55	71	n/a	n/a	n/a	f	11	0.05000000000000003	1	f	1	1.106400527554797
12	56	91	n/a	n/a	n/a	j	11	0.04000000000000003	2	j	1	0.9738004338578321
12	57	111	n/a	n/a	n/a	f	11	0.05000000000000003	1	f	1	0.9048894395527896
12	58	91	n/a	n/a	n/a	f	11	0.04000000000000003	0	f	1	0.8994716808665544
12	59	71	n/a	n/a	n/a	f	11	0.05000000000000003	0	f	1	0.9816016301047057
12	60	71	n/a	n/a	n/a	f	11	0.06000000000000003	1	f	1	1.072431126231095
12	61	91	n/a	n/a	n/a	f	11	0.05000000000000003	2	f	1	0.8674945595557801
12	62	111	n/a	n/a	n/a	j	11	0.06000000000000003	0	j	1	0.9822029063652735
12	63	71	n/a	n/a	n/a	f	11	0.07000000000000003	1	f	1	0.9852817032078747
12	64	91	n/a	n/a	n/a	f	11	0.06000000000000003	1	f	1	1.020274899288779
12	65	91	n/a	n/a	n/a	f	11	0.05000000000000003	1	f	1	0.9192698926490266
12	66	91	n/a	n/a	n/a	f	11	0.04000000000000003	0	f	1	0.8821410111268051
12	67	71	n/a	n/a	n/a	f	11	0.05000000000000003	0	f	1	0.8771474814857356
12	68	71	n/a	n/a	n/a	j	11	0.06000000000000003	0	f	0	1.065137123223394
12	69	131	n/a	n/a	n/a	f	11	0.07000000000000003	2	f	1	0.9774089468410239
12	70	111	n/a	n/a	n/a	f	11	0.08000000000000003	1	f	1	1.052931129204808
12	71	91	n/a	n/a	n/a	f	11	0.07000000000000003	1	f	1	0.9050664867972955
13	0	86	j	1	0.07416653100517578	j	6	0.02000000000000001	2	j	1	0.6170009798952378
13	1	106	n/a	n/a	n/a	f	6	0.03000000000000001	1	f	1	0.6349523127137218
13	2	86	n/a	n/a	n/a	j	6	0.02000000000000001	2	j	1	0.6615093944710679
13	3	106	n/a	n/a	n/a	j	6	0.03000000000000001	2	j	1	0.5529720410995651
13	4	106	n/a	n/a	n/a	j	6	0.04000000000000001	1	j	1	0.5417818590358365
13	5	86	n/a	n/a	n/a	f	6	0.03000000000000001	0	f	1	0.5529281356721185
13	6	66	n/a	n/a	n/a	j	6	0.04000000000000001	1	j	1	0.5797158634813968
13	7	86	n/a	n/a	n/a	j	6	0.03000000000000001	1	j	1	0.5906078307307325
13	8	86	n/a	n/a	n/a	j	6	0.02000000000000001	1	j	1	0.5377000797307119
13	9	86	n/a	n/a	n/a	f	6	0.01000000000000001	0	f	1	0.5572992915986106
13	10	66	n/a	n/a	n/a	j	6	0.02000000000000001	0	j	1	0.5367113522952422
13	11	66	n/a	n/a	n/a	j	6	0.03000000000000001	0	j	1	0.6272107024560682
13	12	66	n/a	n/a	n/a	j	6	0.04000000000000001	1	j	1	0.5835233763500582
13	13	86	n/a	n/a	n/a	f	6	0.03000000000000001	1	f	1	0.5874429336399771
13	14	86	n/a	n/a	n/a	j	6	0.02000000000000001	1	j	1	0.6224358446197584
13	15	86	n/a	n/a	n/a	j	6	0.01000000000000001	2	j	1	0.6494465207506437
13	16	106	n/a	n/a	n/a	j	6	0.02000000000000001	2	j	1	0.6053517865366302
13	17	106	n/a	n/a	n/a	f	6	0.03000000000000001	1	f	1	0.5296930412005167
13	18	86	n/a	n/a	n/a	j	6	0.02000000000000001	0	j	1	0.5582803213328589
13	19	66	n/a	n/a	n/a	j	6	0.03000000000000001	1	j	1	0.553291353280656
13	20	86	n/a	n/a	n/a	j	6	0.02000000000000001	0	j	1	0.6123013885226101
13	21	66	n/a	n/a	n/a	f	6	0.03000000000000001	1	f	1	0.5752306674257852
13	22	86	n/a	n/a	n/a	j	6	0.02000000000000001	1	j	1	0.5942676617414691
13	23	86	n/a	n/a	n/a	j	6	0.01000000000000001	1	j	1	0.566096342750825
13	24	86	n/a	n/a	n/a	j	6	1.040834085586084e-17	0	j	1	0.578899906744482
13	25	66	n/a	n/a	n/a	f	6	0.01000000000000001	0	f	1	0.6150112657342106
13	26	66	n/a	n/a	n/a	j	6	0.02000000000000001	2	j	1	0.5780893669289071
13	27	106	n/a	n/a	n/a	j	6	0.03000000000000001	1	j	1	0.5422525594185572
13	28	86	n/a	n/a	n/a	j	6	0.02000000000000001	0	j	1	0.5316508241230622
13	29	66	n/a	n/a	n/a	f	6	0.03000000000000001	0	f	1	0.5985247776261531
13	30	66	n/a	n/a	n/a	j	6	0.04000000000000001	1	j	1	0.6019231717800722
13	31	86	n/a	n/a	n/a	j	6	0.03000000000000001	1	j	1	0.5655289934074972
13	32	86	n/a	n/a	n/a	j	6	0.02000000000000001	1	j	1	0.5606495038373396
13	33	86	n/a	n/a	n/a	f	6	0.01000000000000001	0	f	1	0.579505174420774
13	34	66	n/a	n/a	n/a	j	6	0.02000000000000001	1	j	1	0.5668122293136548
13	35	86	n/a	n/a	n/a	j	6	0.01000000000000001	0	j	1	0.5938325988536235
13	36	66	n/a	n/a	n/a	j	6	0.02000000000000001	1	j	1	0.5645465381676331
13	37	86	n/a	n/a	n/a	f	6	0.01000000000000001	0	f	1	0.5756064294837415
13	38	66	n/a	n/a	n/a	j	6	0.02000000000000001	1	j	1	0.6176353277987801
13	39	86	n/a	n/a	n/a	j	6	0.01000000000000001	2	j	1	1.116619088221341
13	40	106	n/a	n/a	n/a	j	6	0.02000000000000001	2	j	1	0.6233501608949155
13	41	106	n/a	n/a	n/a	f	6	0.03000000000000001	2	f	1	0.5545207052491605
13	42	106	n/a	n/a	n/a	j	6	0.04000000000000001	1	j	1	0.5587034100026358
13	43	86	n/a	n/a	n/a	j	6	0.03000000000000001	1	j	1	0.563469714805251
13	44	86	n/a	n/a	n/a	j	6	0.02000000000000001	0	j	1	0.5514955072430894
13	45	66	n/a	n/a	n/a	f	6	0.03000000000000001	0	f	1	0.6344257326854859
13	46	66	n/a	n/a	n/a	j	6	0.04000000000000001	2	j	1	0.5504010076692794
13	47	106	n/a	n/a	n/a	j	6	0.05000000000000002	1	j	1	0.5532993360830005
13	48	86	n/a	n/a	n/a	j	6	0.04000000000000001	1	j	1	0.5642369193665218
13	49	86	n/a	n/a	n/a	f	6	0.03000000000000001	1	f	1	0.5763485452334862
13	50	86	n/a	n/a	n/a	j	6	0.02000000000000001	1	j	1	0.5893941592657939
13	51	86	n/a	n/a	n/a	j	6	0.01000000000000001	1	j	1	0.6483420426666271
13	52	86	n/a	n/a	n/a	j	6	1.040834085586084e-17	2	j	1	0.5392216594191268
13	53	106	n/a	n/a	n/a	f	6	0.01000000000000001	0	f	1	0.5586518068739679
13	54	66	n/a	n/a	n/a	j	6	0.02000000000000001	0	j	1	0.5220751643646508
13	55	66	n/a	n/a	n/a	j	6	0.03000000000000001	0	j	1	0.5602267002686858
13	56	66	n/a	n/a	n/a	j	6	0.04000000000000001	1	j	1	0.5871347403444815
13	57	86	n/a	n/a	n/a	f	6	0.03000000000000001	1	f	1	0.6219910883228295
13	58	86	n/a	n/a	n/a	j	6	0.02000000000000001	2	j	1	0.5939266819332261
13	59	106	n/a	n/a	n/a	j	6	0.03000000000000001	1	j	1	0.6039063286152668
13	60	86	n/a	n/a	n/a	j	6	0.02000000000000001	1	j	1	0.6149562413920648
13	61	86	n/a	n/a	n/a	f	6	0.01000000000000001	2	f	1	0.5871740841539577
13	62	106	n/a	n/a	n/a	j	6	0.02000000000000001	1	j	1	0.5988070268067531
13	63	86	n/a	n/a	n/a	j	6	0.01000000000000001	2	j	1	0.642747236735886
13	64	106	n/a	n/a	n/a	j	6	0.02000000000000001	2	j	1	0.6154015678912401
13	65	106	n/a	n/a	n/a	f	6	0.03000000000000001	2	f	1	0.5305440652300604
13	66	106	n/a	n/a	n/a	j	6	0.04000000000000001	0	j	1	0.5176016574550886
13	67	66	n/a	n/a	n/a	j	6	0.05000000000000002	0	j	1	0.5687805609486531
13	68	66	n/a	n/a	n/a	j	6	0.06000000000000002	1	j	1	0.6676441801246256
13	69	86	n/a	n/a	n/a	f	6	0.05000000000000002	2	f	1	0.5517141790769529
13	70	106	n/a	n/a	n/a	j	6	0.06000000000000002	1	j	1	0.6261481340625323
13	71	86	n/a	n/a	n/a	j	6	0.05000000000000002	1	j	1	0.5823444871057291
14	0	90	j	1	0.03556681764894165	j	10	0.04000000000000001	0	j	1	1.028844155400293
14	1	70	n/a	n/a	n/a	f	10	0.05000000000000002	1	f	1	1.046902115718694
14	2	90	n/a	n/a	n/a	j	10	0.04000000000000001	2	j	1	0.9854199767869432
14	3	110	n/a	n/a	n/a	j	10	0.05000000000000002	1	j	1	0.9167764064914081
14	4	90	n/a	n/a	n/a	j	10	0.04000000000000001	0	j	1	0.9676263043947984
14	5	70	n/a	n/a	n/a	f	10	0.05000000000000002	1	f	1	1.082565867400263
14	6	90	n/a	n/a	n/a	j	10	0.04000000000000001	2	j	1	0.9105073386162985
14	7	110	n/a	n/a	n/a	j	10	0.05000000000000002	0	j	1	0.9544227448350284
14	8	70	n/a	n/a	n/a	j	10	0.06000000000000002	1	j	1	0.8691424386051949
14	9	90	n/a	n/a	n/a	f	10	0.05000000000000002	0	f	1	0.9200122935289983
14	10	70	n/a	n/a	n/a	j	10	0.06000000000000002	0	j	1	0.939350638713222
14	11	70	n/a	n/a	n/a	j	10	0.07000000000000002	1	j	1	0.8622966131079011
14	12	90	n/a	n/a	n/a	j	10	0.06000000000000002	0	j	1	0.8491315421124455
14	13	70	n/a	n/a	n/a	f	10	0.07000000000000002	0	f	1	0.933206159650581
14	14	70	n/a	n/a	n/a	j	10	0.08000000000000002	1	j	1	0.968246682343306
14	15	90	n/a	n/a	n/a	j	10	0.07000000000000002	1	j	1	0.8850849556038156
14	16	90	n/a	n/a	n/a	j	10	0.06000000000000002	0	j	1	0.9042291475343518
14	17	70	n/a	n/a	n/a	f	10	0.07000000000000002	0	f	1	0.9069293313659728
14	18	70	n/a	n/a	n/a	j	10	0.08000000000000002	0	j	1	1.08579576734337
14	19	70	n/a	n/a	n/a	j	10	0.09000000000000001	2	j	1	1.018192242481746
14	20	110	n/a	n/a	n/a	j	10	0.1	1	j	1	1.316826698137447
14	21	90	n/a	n/a	n/a	f	10	0.09000000000000001	2	f	1	0.8554371027566958
14	22	110	n/a	n/a	n/a	j	10	0.1	0	j	1	0.8987361223844346
14	23	70	n/a	n/a	n/a	j	10	0.11	1	j	1	0.8464692765846848
14	24	90	n/a	n/a	n/a	j	10	0.1	0	j	1	0.841637683857698
14	25	70	n/a	n/a	n/a	f	10	0.11	0	f	1	0.8615331148030236
14	26	70	n/a	n/a	n/a	j	10	0.12	0	j	1	0.9300552324566524
14	27	70	n/a	n/a	n/a	j	10	0.13	1	j	1	0.9915544773684815
14	28	90	n/a	n/a	n/a	j	10	0.12	1	j	1	0.849696610646788
14	29	90	n/a	n/a	n/a	f	10	0.11	0	f	1	0.8282023378706072
14	30	70	n/a	n/a	n/a	j	10	0.12	0	j	1	0.9192850029794499
14	31	70	n/a	n/a	n/a	j	10	0.13	1	j	1	0.9641520735749509
14	32	90	n/a	n/a	n/a	j	10	0.12	1	j	1	0.8871314046846237
14	33	90	n/a	n/a	n/a	f	10	0.11	1	f	1	0.9460664585640188
14	34	90	n/a	n/a	n/a	j	10	0.1	1	j	1	0.9570365432882681
14	35	90	n/a	n/a	n/a	j	10	0.09000000000000002	1	j	1	0.8960538998944685
14	36	90	n/a	n/a	n/a	j	10	0.08000000000000003	0	j	1	0.9309994842624292
14	37	70	n/a	n/a	n/a	f	10	0.09000000000000002	1	f	1	0.9668861842947081
14	38	90	n/a	n/a	n/a	j	10	0.08000000000000003	1	j	1	0.9458175660984125
14	39	90	n/a	n/a	n/a	j	10	0.07000000000000003	1	j	1	0.9967384539195336
14	40	90	n/a	n/a	n/a	j	10	0.06000000000000003	1	j	1	0.9369213001045864
14	41	90	n/a	n/a	n/a	f	10	0.05000000000000003	1	f	1	1.011629236338194
14	42	90	n/a	n/a	n/a	j	10	0.04000000000000003	1	j	1	0.9915385117637925
14	43	90	n/a	n/a	n/a	j	10	0.03000000000000003	1	j	1	0.9854154151689727
14	44	90	n/a	n/a	n/a	j	10	0.02000000000000002	1	j	1	0.9566208672476932
14	45	90	n/a	n/a	n/a	f	10	0.01000000000000002	0	f	1	0.9673851096304134
14	46	70	n/a	n/a	n/a	j	10	0.02000000000000002	1	j	1	0.9544064941292163
14	47	90	n/a	n/a	n/a	j	10	0.01000000000000002	0	j	1	0.9172787529823836
14	48	70	n/a	n/a	n/a	j	10	0.02000000000000002	0	j	1	1.008387932379264
14	49	70	n/a	n/a	n/a	f	10	0.03000000000000003	1	f	1	1.019154455600074
14	50	90	n/a	n/a	n/a	j	10	0.02000000000000002	2	j	1	0.9101677843136713
14	51	110	n/a	n/a	n/a	j	10	0.03000000000000003	0	j	1	0.9452165749389678
14	52	70	n/a	n/a	n/a	j	10	0.04000000000000003	0	j	1	0.9880591491528321
14	53	70	n/a	n/a	n/a	f	10	0.05000000000000003	0	j	0	1.047024138591951
14	54	130	n/a	n/a	n/a	j	10	0.04000000000000003	2	j	1	1.033898981608218
14	55	110	n/a	n/a	n/a	j	10	0.05000000000000003	1	j	1	0.9328934047662187
14	56	90	n/a	n/a	n/a	j	10	0.04000000000000003	0	j	1	0.9390102291072253
14	57	70	n/a	n/a	n/a	f	10	0.05000000000000003	1	f	1	1.109389517834643
14	58	90	n/a	n/a	n/a	j	10	0.04000000000000003	2	j	1	0.9936893075355329
14	59	110	n/a	n/a	n/a	j	10	0.05000000000000003	1	j	1	0.9575999012449756
14	60	90	n/a	n/a	n/a	j	10	0.04000000000000003	1	j	1	0.944791490532225
14	61	90	n/a	n/a	n/a	f	10	0.03000000000000003	1	j	0	0.9226163985731546
14	62	130	n/a	n/a	n/a	j	10	0.04000000000000003	0	j	1	0.9584711673669517
14	63	70	n/a	n/a	n/a	j	10	0.05000000000000003	1	j	1	0.9784575453086291
14	64	90	n/a	n/a	n/a	j	10	0.04000000000000003	1	j	1	0.9570368283893913
14	65	90	n/a	n/a	n/a	f	10	0.03000000000000003	1	f	1	1.018269789725309
14	66	90	n/a	n/a	n/a	j	10	0.02000000000000002	2	j	1	0.8704114195134025
14	67	110	n/a	n/a	n/a	j	10	0.03000000000000003	0	j	1	0.9701645512832329
14	68	70	n/a	n/a	n/a	j	10	0.04000000000000003	1	j	1	0.9821367631375324
14	69	90	n/a	n/a	n/a	f	10	0.03000000000000003	1	j	0	0.9132180711312685
14	70	130	n/a	n/a	n/a	j	10	0.02000000000000002	0	j	1	0.9959989040798973
14	71	70	n/a	n/a	n/a	j	10	0.03000000000000003	1	j	1	0.97503947923542
15	0	92	j	1	0.03678391032735817	j	12	0.04000000000000001	1	j	1	1.030410210689297
15	1	92	n/a	n/a	n/a	j	12	0.03000000000000001	2	j	1	1.011282554507488
15	2	112	n/a	n/a	n/a	f	12	0.04000000000000001	1	f	1	1.0142438900657
15	3	92	n/a	n/a	n/a	j	12	0.03000000000000001	2	j	1	0.9931248091452289
15	4	112	n/a	n/a	n/a	j	12	0.04000000000000001	1	j	1	0.9491079072759021
15	5	92	n/a	n/a	n/a	j	12	0.03000000000000001	0	j	1	1.019053530122619
15	6	72	n/a	n/a	n/a	j	12	0.04000000000000001	1	j	1	1.031923522474244
15	7	92	n/a	n/a	n/a	j	12	0.03000000000000001	2	j	1	1.009097261645366
15	8	112	n/a	n/a	n/a	f	12	0.04000000000000001	1	f	1	0.9478474794013891
15	9	92	n/a	n/a	n/a	j	12	0.03000000000000001	0	j	1	0.9350806933362037
15	10	72	n/a	n/a	n/a	j	12	0.04000000000000001	0	j	1	0.9788070781505667
15	11	72	n/a	n/a	n/a	j	12	0.05000000000000002	1	j	1	0.9572922781517264
15	12	92	n/a	n/a	n/a	j	12	0.04000000000000001	1	j	1	0.9927225327992346
15	13	92	n/a	n/a	n/a	j	12	0.03000000000000001	1	j	1	0.9386609813664109
15	14	92	n/a	n/a	n/a	f	12	0.02000000000000001	0	f	1	1.061602736270288
15	15	72	n/a	n/a	n/a	j	12	0.03000000000000001	2	j	1	1.010528179438552
15	16	112	n/a	n/a	n/a	j	12	0.04000000000000001	1	j	1	0.9345963081286754
15	17	92	n/a	n/a	n/a	j	12	0.03000000000000001	0	j	1	1.001036054076394
15	18	72	n/a	n/a	n/a	j	12	0.04000000000000001	1	j	1	0.9670829034294002
15	19	92	n/a	n/a	n/a	j	12	0.03000000000000001	1	j	1	0.9974007416749373
15	20	92	n/a	n/a	n/a	f	12	0.02000000000000001	1	f	1	0.976432478724746
15	21	92	n/a	n/a	n/a	j	12	0.01000000000000001	1	j	1	0.9711247686645947
15	22	92	n/a	n/a	n/a	j	12	1.040834085586084e-17	0	j	1	0.9660705126880202
15	23	72	n/a	n/a	n/a	j	12	0.01000000000000001	0	j	1	0.9768809413071722
15	24	72	n/a	n/a	n/a	j	12	0.02000000000000001	1	j	1	1.018655245192349
15	25	92	n/a	n/a	n/a	j	12	0.01000000000000001	2	j	1	0.9499774628202431
15	26	112	n/a	n/a	n/a	f	12	0.02000000000000001	0	f	1	1.034864330809796
15	27	72	n/a	n/a	n/a	j	12	0.03000000000000001	2	j	1	1.070426301739644
15	28	112	n/a	n/a	n/a	j	12	0.04000000000000001	2	j	1	1.049211997335078
15	29	112	n/a	n/a	n/a	j	12	0.05000000000000002	2	j	1	1.740141164482338
15	30	112	n/a	n/a	n/a	j	12	0.06000000000000002	2	f	0	1.047243380598957
15	31	132	n/a	n/a	n/a	j	12	0.07000000000000002	1	j	1	0.9885994140058756
15	32	92	n/a	n/a	n/a	f	12	0.06000000000000002	1	f	1	0.9377629158261698
15	33	92	n/a	n/a	n/a	j	12	0.05000000000000002	1	j	1	0.932388492336031
15	34	92	n/a	n/a	n/a	j	12	0.04000000000000001	0	j	1	0.9441873632895295
15	35	72	n/a	n/a	n/a	j	12	0.05000000000000002	1	j	1	0.9243044767063111
15	36	92	n/a	n/a	n/a	j	12	0.04000000000000001	1	f	0	0.9375753198983148
15	37	132	n/a	n/a	n/a	j	12	0.05000000000000002	1	j	1	0.924068698863266
15	38	92	n/a	n/a	n/a	f	12	0.04000000000000001	0	f	1	0.9831440220586956
15	39	72	n/a	n/a	n/a	j	12	0.05000000000000002	1	j	1	0.9312680486182217
15	40	92	n/a	n/a	n/a	j	12	0.04000000000000001	0	j	1	0.998069871799089
15	41	72	n/a	n/a	n/a	j	12	0.05000000000000002	1	j	1	0.9287355037231464
15	42	92	n/a	n/a	n/a	j	12	0.04000000000000001	0	j	1	0.9159025744302198
15	43	72	n/a	n/a	n/a	j	12	0.05000000000000002	0	j	1	0.9988473399716895
15	44	72	n/a	n/a	n/a	f	12	0.06000000000000002	0	j	0	0.9778511372278444
15	45	132	n/a	n/a	n/a	j	12	0.05000000000000002	1	j	1	0.9737265929288696
15	46	92	n/a	n/a	n/a	j	12	0.04000000000000001	1	j	1	1.008474317757646
15	47	92	n/a	n/a	n/a	j	12	0.03000000000000001	1	j	1	0.9155598840152379
15	48	92	n/a	n/a	n/a	j	12	0.02000000000000001	0	j	1	0.9836993972130585
15	49	72	n/a	n/a	n/a	j	12	0.03000000000000001	1	j	1	0.9780541285581421
15	50	92	n/a	n/a	n/a	f	12	0.02000000000000001	1	f	1	1.006395652337233
15	51	92	n/a	n/a	n/a	j	12	0.01000000000000001	2	j	1	0.9690284270327538
15	52	112	n/a	n/a	n/a	j	12	0.02000000000000001	1	j	1	1.00535218566074
15	53	92	n/a	n/a	n/a	j	12	0.01000000000000001	2	j	1	0.8493348185147624
15	54	112	n/a	n/a	n/a	j	12	0.02000000000000001	0	j	1	1.020166846341453
15	55	72	n/a	n/a	n/a	j	12	0.03000000000000001	2	j	1	0.985577067011036
15	56	112	n/a	n/a	n/a	f	12	0.04000000000000001	1	f	1	0.9162127634335775
15	57	92	n/a	n/a	n/a	j	12	0.03000000000000001	0	j	1	0.9349643724563066
15	58	72	n/a	n/a	n/a	j	12	0.04000000000000001	0	j	1	0.9487623658787925
15	59	72	n/a	n/a	n/a	j	12	0.05000000000000002	1	j	1	0.9771760199801065
15	60	92	n/a	n/a	n/a	j	12	0.04000000000000001	1	j	1	0.9329318932723254
15	61	92	n/a	n/a	n/a	j	12	0.03000000000000001	0	j	1	0.969903969700681
15	62	72	n/a	n/a	n/a	f	12	0.04000000000000001	1	f	1	0.9984704375383444
15	63	92	n/a	n/a	n/a	j	12	0.03000000000000001	1	j	1	0.9134849249094259
15	64	92	n/a	n/a	n/a	j	12	0.02000000000000001	0	j	1	1.604682656412479
15	65	72	n/a	n/a	n/a	j	12	0.03000000000000001	2	j	1	0.9277042963949498
15	66	112	n/a	n/a	n/a	j	12	0.04000000000000001	0	j	1	0.9465391546837054
15	67	72	n/a	n/a	n/a	j	12	0.05000000000000002	1	j	1	1.031618180160876
15	68	92	n/a	n/a	n/a	f	12	0.04000000000000001	2	f	1	0.843169812229462
15	69	112	n/a	n/a	n/a	j	12	0.05000000000000002	0	j	1	0.8783141113817692
15	70	72	n/a	n/a	n/a	j	12	0.06000000000000002	0	j	1	0.8899131271173246
15	71	72	n/a	n/a	n/a	j	12	0.07000000000000002	0	j	1	1.028888345928863
16	0	67	f	1	0.03987439628690481	f	7	0.04000000000000001	0	j	0	0.6011933153204154
16	1	127	n/a	n/a	n/a	f	7	0.05000000000000002	0	j	0	0.6431614872999489
16	2	127	n/a	n/a	n/a	j	7	0.04000000000000001	2	j	1	0.7900567891192622
16	3	107	n/a	n/a	n/a	f	7	0.05000000000000002	2	f	1	0.6013233209960163
16	4	107	n/a	n/a	n/a	f	7	0.06000000000000002	1	f	1	0.5810110735765193
16	5	87	n/a	n/a	n/a	f	7	0.05000000000000002	1	f	1	0.6251967547577806
16	6	87	n/a	n/a	n/a	f	7	0.04000000000000001	1	f	1	0.6276403484225739
16	7	87	n/a	n/a	n/a	f	7	0.03000000000000001	2	f	1	0.6561056056525558
16	8	107	n/a	n/a	n/a	j	7	0.04000000000000001	2	j	1	0.611794195312541
16	9	107	n/a	n/a	n/a	f	7	0.05000000000000002	1	f	1	0.5987277689564507
16	10	87	n/a	n/a	n/a	f	7	0.04000000000000001	1	f	1	0.5618452139897272
16	11	87	n/a	n/a	n/a	f	7	0.03000000000000001	1	f	1	0.5737450103915762
16	12	87	n/a	n/a	n/a	f	7	0.02000000000000001	1	f	1	0.5850600663397927
16	13	87	n/a	n/a	n/a	f	7	0.01000000000000001	1	f	1	0.6515260414744262
16	14	87	n/a	n/a	n/a	j	7	1.040834085586084e-17	2	j	1	0.5742242637788877
16	15	107	n/a	n/a	n/a	f	7	0.01000000000000001	0	f	1	0.6185881325800437
16	16	67	n/a	n/a	n/a	f	7	0.02000000000000001	2	f	1	0.6294932144810446
16	17	107	n/a	n/a	n/a	f	7	0.03000000000000001	2	f	1	0.5846996997133829
16	18	107	n/a	n/a	n/a	f	7	0.04000000000000001	1	f	1	0.6031066226423718
16	19	87	n/a	n/a	n/a	f	7	0.03000000000000001	1	f	1	0.5975206547882408
16	20	87	n/a	n/a	n/a	j	7	0.02000000000000001	1	j	1	0.5761774851125665
16	21	87	n/a	n/a	n/a	f	7	0.01000000000000001	1	f	1	0.58748740926967
16	22	87	n/a	n/a	n/a	f	7	1.040834085586084e-17	0	f	1	0.5913884350156877
16	23	67	n/a	n/a	n/a	f	7	0.01000000000000001	1	f	1	0.5635486875544302
16	24	87	n/a	n/a	n/a	f	7	1.040834085586084e-17	0	f	1	0.6144239593704697
16	25	67	n/a	n/a	n/a	f	7	0.01000000000000001	2	f	1	0.6099051214987412
16	26	107	n/a	n/a	n/a	j	7	0.02000000000000001	2	j	1	0.5892581664957106
16	27	107	n/a	n/a	n/a	f	7	0.03000000000000001	1	f	1	0.6334592430503108
16	28	87	n/a	n/a	n/a	f	7	0.02000000000000001	2	f	1	0.6362281360197812
16	29	107	n/a	n/a	n/a	f	7	0.03000000000000001	2	f	1	0.575056756293634
16	30	107	n/a	n/a	n/a	f	7	0.04000000000000001	1	f	1	0.5700535332725849
16	31	87	n/a	n/a	n/a	f	7	0.03000000000000001	1	f	1	0.6060508521914016
16	32	87	n/a	n/a	n/a	j	7	0.02000000000000001	2	j	1	0.5452013505855575
16	33	107	n/a	n/a	n/a	f	7	0.03000000000000001	0	f	1	0.5807904060347937
16	34	67	n/a	n/a	n/a	f	7	0.04000000000000001	1	f	1	0.5761866083485074
16	35	87	n/a	n/a	n/a	f	7	0.03000000000000001	1	f	1	0.6039228644513059
16	36	87	n/a	n/a	n/a	f	7	0.02000000000000001	2	f	1	0.5841346311499365
16	37	107	n/a	n/a	n/a	f	7	0.03000000000000001	1	f	1	0.6429336922592483
16	38	87	n/a	n/a	n/a	j	7	0.02000000000000001	2	j	1	0.5818210431898478
16	39	107	n/a	n/a	n/a	f	7	0.03000000000000001	1	f	1	0.6179996858118102
16	40	87	n/a	n/a	n/a	f	7	0.02000000000000001	2	f	1	0.6787194668431766
16	41	107	n/a	n/a	n/a	f	7	0.03000000000000001	2	f	1	0.5216663307510316
16	42	107	n/a	n/a	n/a	f	7	0.04000000000000001	0	f	1	0.5967574416135903
16	43	67	n/a	n/a	n/a	f	7	0.05000000000000002	1	f	1	0.6083712825493421
16	44	87	n/a	n/a	n/a	j	7	0.04000000000000001	1	j	1	0.52362924546469
16	45	87	n/a	n/a	n/a	f	7	0.03000000000000001	0	f	1	0.6066495625709649
16	46	67	n/a	n/a	n/a	f	7	0.04000000000000001	1	f	1	0.6177701801643707
16	47	87	n/a	n/a	n/a	f	7	0.03000000000000001	1	f	1	0.5677020269795321
16	48	87	n/a	n/a	n/a	f	7	0.02000000000000001	1	f	1	0.5544864932307974
16	49	87	n/a	n/a	n/a	f	7	0.01000000000000001	0	f	1	0.6470665044616908
16	50	67	n/a	n/a	n/a	j	7	0.02000000000000001	2	j	1	0.5716455326473806
16	51	107	n/a	n/a	n/a	f	7	0.03000000000000001	1	f	1	0.5824559612956364
16	52	87	n/a	n/a	n/a	f	7	0.02000000000000001	1	f	1	0.5613976067106705
16	53	87	n/a	n/a	n/a	f	7	0.01000000000000001	0	f	1	0.5638309367350303
16	54	67	n/a	n/a	n/a	f	7	0.02000000000000001	0	f	1	0.5822945945838001
16	55	67	n/a	n/a	n/a	f	7	0.03000000000000001	1	f	1	0.6034324921201915
16	56	87	n/a	n/a	n/a	j	7	0.02000000000000001	1	j	1	0.5742003154009581
16	57	87	n/a	n/a	n/a	f	7	0.01000000000000001	1	f	1	0.5851649832038675
16	58	87	n/a	n/a	n/a	f	7	1.040834085586084e-17	0	f	1	0.5795379609335214
16	59	67	n/a	n/a	n/a	f	7	0.01000000000000001	1	f	1	0.582176563097164
16	60	87	n/a	n/a	n/a	f	7	1.040834085586084e-17	0	f	1	0.5581645706552081
16	61	67	n/a	n/a	n/a	f	7	0.01000000000000001	0	f	1	0.5871187747397926
16	62	67	n/a	n/a	n/a	j	7	0.02000000000000001	1	j	1	0.5900239455513656
16	63	87	n/a	n/a	n/a	f	7	0.01000000000000001	1	f	1	0.6009575374773704
16	64	87	n/a	n/a	n/a	f	7	1.040834085586084e-17	2	f	1	0.589030086324783
16	65	107	n/a	n/a	n/a	f	7	0.01000000000000001	1	f	1	0.6092610802152194
16	66	87	n/a	n/a	n/a	f	7	1.040834085586084e-17	2	f	1	0.5879792070772965
16	67	107	n/a	n/a	n/a	f	7	0.01000000000000001	1	f	1	0.5903845972788986
16	68	87	n/a	n/a	n/a	j	7	1.040834085586084e-17	2	j	1	0.5599909224256407
16	69	107	n/a	n/a	n/a	f	7	0.01000000000000001	0	f	1	0.6028238032595254
16	70	67	n/a	n/a	n/a	f	7	0.02000000000000001	1	f	1	0.5978026188677177
16	71	87	n/a	n/a	n/a	f	7	0.01000000000000001	2	f	1	0.5686477042618208
17	0	105	f	1	0.03929792367853224	f	5	0.02000000000000001	1	f	1	0.5685644549957942
17	1	85	n/a	n/a	n/a	j	5	0.01000000000000001	0	j	1	0.5785001962794922
17	2	65	n/a	n/a	n/a	f	5	0.02000000000000001	1	f	1	0.6317734456970356
17	3	85	n/a	n/a	n/a	f	5	0.01000000000000001	2	f	1	0.5866181388264522
17	4	105	n/a	n/a	n/a	f	5	0.02000000000000001	1	f	1	0.5976315587759018
17	5	85	n/a	n/a	n/a	j	5	0.01000000000000001	2	j	1	0.5626158397935797
17	6	105	n/a	n/a	n/a	f	5	0.02000000000000001	0	f	1	0.621549468167359
17	7	65	n/a	n/a	n/a	f	5	0.03000000000000001	2	f	1	0.6478157477395143
17	8	105	n/a	n/a	n/a	f	5	0.04000000000000001	2	f	1	0.6124670317221899
17	9	105	n/a	n/a	n/a	j	5	0.05000000000000002	1	j	1	0.5835342101927381
17	10	85	n/a	n/a	n/a	f	5	0.04000000000000001	1	f	1	0.5939295329444576
17	11	85	n/a	n/a	n/a	f	5	0.03000000000000001	1	f	1	0.5812400090217125
17	12	85	n/a	n/a	n/a	f	5	0.02000000000000001	1	f	1	0.6273461250239052
17	13	85	n/a	n/a	n/a	j	5	0.01000000000000001	2	j	1	0.5979354755545501
17	14	105	n/a	n/a	n/a	f	5	0.02000000000000001	1	f	1	0.617663837823784
17	15	85	n/a	n/a	n/a	f	5	0.01000000000000001	2	f	1	0.5812579703342635
17	16	105	n/a	n/a	n/a	f	5	0.02000000000000001	1	f	1	0.6009298827266321
17	17	85	n/a	n/a	n/a	j	5	0.01000000000000001	2	j	1	0.5640692804881837
17	18	105	n/a	n/a	n/a	f	5	0.02000000000000001	1	f	1	0.600162107963115
17	19	85	n/a	n/a	n/a	f	5	0.01000000000000001	2	f	1	0.5868915498722345
17	20	105	n/a	n/a	n/a	f	5	0.02000000000000001	1	f	1	0.5979331947455648
17	21	85	n/a	n/a	n/a	j	5	0.01000000000000001	2	j	1	0.5612091554794461
17	22	105	n/a	n/a	n/a	f	5	0.02000000000000001	0	f	1	0.6048733884235844
17	23	65	n/a	n/a	n/a	f	5	0.03000000000000001	1	f	1	0.6000323873886373
17	24	85	n/a	n/a	n/a	f	5	0.02000000000000001	1	f	1	0.5718533706967719
17	25	85	n/a	n/a	n/a	j	5	0.01000000000000001	0	j	1	0.5520688437100034
17	26	65	n/a	n/a	n/a	f	5	0.02000000000000001	0	f	1	0.6268446338071954
17	27	65	n/a	n/a	n/a	f	5	0.03000000000000001	2	f	1	0.5657559331739321
17	28	105	n/a	n/a	n/a	f	5	0.04000000000000001	1	f	1	0.5834261572163086
17	29	85	n/a	n/a	n/a	j	5	0.03000000000000001	1	j	1	0.6428498727909755
17	30	85	n/a	n/a	n/a	f	5	0.02000000000000001	2	f	1	1.117657993250759
17	31	105	n/a	n/a	n/a	f	5	0.03000000000000001	2	f	1	0.6083499000524171
17	32	105	n/a	n/a	n/a	f	5	0.04000000000000001	1	f	1	0.6116596280189697
17	33	85	n/a	n/a	n/a	j	5	0.03000000000000001	2	j	1	0.5997002456570044
17	34	105	n/a	n/a	n/a	f	5	0.04000000000000001	1	f	1	0.6025757660681847
17	35	85	n/a	n/a	n/a	f	5	0.03000000000000001	1	f	1	0.5904621445515659
17	36	85	n/a	n/a	n/a	f	5	0.02000000000000001	1	f	1	0.625424264697358
17	37	85	n/a	n/a	n/a	j	5	0.01000000000000001	2	j	1	0.6043758886225987
17	38	105	n/a	n/a	n/a	f	5	0.02000000000000001	1	f	1	0.6234051852370612
17	39	85	n/a	n/a	n/a	f	5	0.01000000000000001	2	f	1	0.6032848102331627
17	40	105	n/a	n/a	n/a	f	5	0.02000000000000001	1	f	1	0.6232309890328906
17	41	85	n/a	n/a	n/a	j	5	0.01000000000000001	2	j	1	0.602258734696079
17	42	105	n/a	n/a	n/a	f	5	0.02000000000000001	1	f	1	0.5891689301352017
17	43	85	n/a	n/a	n/a	f	5	0.01000000000000001	1	f	1	0.5852268499147613
17	44	85	n/a	n/a	n/a	f	5	1.040834085586084e-17	0	f	1	0.6035000608535483
17	45	65	n/a	n/a	n/a	j	5	0.01000000000000001	2	j	1	0.6220999966317322
17	46	105	n/a	n/a	n/a	f	5	0.02000000000000001	2	f	1	0.579051865148358
17	47	105	n/a	n/a	n/a	f	5	0.03000000000000001	1	f	1	0.6300790953391697
17	48	85	n/a	n/a	n/a	f	5	0.02000000000000001	2	f	1	0.609156448423164
17	49	105	n/a	n/a	n/a	j	5	0.03000000000000001	1	j	1	0.6284893767442554
17	50	85	n/a	n/a	n/a	f	5	0.02000000000000001	2	f	1	0.5920384634227958
17	51	105	n/a	n/a	n/a	f	5	0.03000000000000001	1	f	1	0.5703614414669573
17	52	85	n/a	n/a	n/a	f	5	0.02000000000000001	1	f	1	0.5898009972297587
17	53	85	n/a	n/a	n/a	j	5	0.01000000000000001	1	j	1	0.6970209027058445
17	54	85	n/a	n/a	n/a	f	5	1.040834085586084e-17	2	f	1	0.604867401329102
17	55	105	n/a	n/a	n/a	f	5	0.01000000000000001	2	f	1	0.5919791626220103
17	56	105	n/a	n/a	n/a	f	5	0.02000000000000001	1	f	1	0.6188042385329027
17	57	85	n/a	n/a	n/a	j	5	0.01000000000000001	2	j	1	0.581590967340162
17	58	105	n/a	n/a	n/a	f	5	0.02000000000000001	1	f	1	0.6407692116918042
17	59	85	n/a	n/a	n/a	f	5	0.01000000000000001	2	f	1	0.5790490141371265
17	60	105	n/a	n/a	n/a	f	5	0.02000000000000001	1	f	1	0.5746328123495914
17	61	85	n/a	n/a	n/a	j	5	0.01000000000000001	0	j	1	0.5065711314964574
17	62	65	n/a	n/a	n/a	f	5	0.02000000000000001	0	f	1	0.5895235947391484
17	63	65	n/a	n/a	n/a	f	5	0.03000000000000001	1	f	1	0.5526467417948879
17	64	85	n/a	n/a	n/a	f	5	0.02000000000000001	0	f	1	0.6355373382684775
17	65	65	n/a	n/a	n/a	j	5	0.03000000000000001	2	j	1	0.5823664398049004
17	66	105	n/a	n/a	n/a	f	5	0.04000000000000001	1	f	1	0.6185644692741334
17	67	85	n/a	n/a	n/a	f	5	0.03000000000000001	1	f	1	0.5811234030406922
17	68	85	n/a	n/a	n/a	f	5	0.02000000000000001	1	f	1	0.6004894029756542
17	69	85	n/a	n/a	n/a	j	5	0.01000000000000001	2	j	1	0.6033592213934753
17	70	105	n/a	n/a	n/a	f	5	0.02000000000000001	1	f	1	0.6143119149783161
17	71	85	n/a	n/a	n/a	f	5	0.01000000000000001	2	f	1	0.6172150901402347
18	0	108	j	1	0.6387387282156851	j	8	0.02000000000000001	2	j	1	0.5862147220468614
18	1	108	n/a	n/a	n/a	j	8	0.03000000000000001	1	j	1	0.6291590770706534
18	2	88	n/a	n/a	n/a	f	8	0.02000000000000001	2	f	1	0.5517099025892094
18	3	108	n/a	n/a	n/a	j	8	0.03000000000000001	0	j	1	0.5730450894625392
18	4	68	n/a	n/a	n/a	j	8	0.04000000000000001	1	j	1	0.6001196280412842
18	5	88	n/a	n/a	n/a	j	8	0.03000000000000001	1	j	1	0.5699280891858507
18	6	88	n/a	n/a	n/a	j	8	0.02000000000000001	1	j	1	0.5881400035577826
18	7	88	n/a	n/a	n/a	j	8	0.01000000000000001	1	j	1	0.5823958051623777
18	8	88	n/a	n/a	n/a	f	8	1.040834085586084e-17	0	f	1	0.5619056552241091
18	9	68	n/a	n/a	n/a	j	8	0.01000000000000001	0	j	1	0.5737649674119893
18	10	68	n/a	n/a	n/a	j	8	0.02000000000000001	1	j	1	0.6018721388536505
18	11	88	n/a	n/a	n/a	j	8	0.01000000000000001	2	j	1	0.540726988343522
18	12	108	n/a	n/a	n/a	j	8	0.02000000000000001	0	j	1	0.5760166886320803
18	13	68	n/a	n/a	n/a	j	8	0.03000000000000001	1	j	1	0.5867629697022494
18	14	88	n/a	n/a	n/a	f	8	0.02000000000000001	1	f	1	0.6217838205047883
18	15	88	n/a	n/a	n/a	j	8	0.01000000000000001	2	j	1	0.5226154292176943
18	16	108	n/a	n/a	n/a	j	8	0.02000000000000001	0	j	1	0.5892028570233379
18	17	68	n/a	n/a	n/a	j	8	0.03000000000000001	1	j	1	0.5443258079176303
18	18	88	n/a	n/a	n/a	j	8	0.02000000000000001	0	j	1	0.5859678252891172
18	19	68	n/a	n/a	n/a	j	8	0.03000000000000001	1	j	1	0.5645163175649941
18	20	88	n/a	n/a	n/a	f	8	0.02000000000000001	1	f	1	0.5611584076541476
18	21	88	n/a	n/a	n/a	j	8	0.01000000000000001	0	j	1	0.5324693467409816
18	22	68	n/a	n/a	n/a	j	8	0.02000000000000001	0	j	1	0.6151401310344227
18	23	68	n/a	n/a	n/a	j	8	0.03000000000000001	2	j	1	0.522350571147399
18	24	108	n/a	n/a	n/a	j	8	0.04000000000000001	0	j	1	0.5809959632460959
18	25	68	n/a	n/a	n/a	j	8	0.05000000000000002	1	j	1	0.5604878520243801
18	26	88	n/a	n/a	n/a	f	8	0.04000000000000001	1	f	1	0.5228358116874006
18	27	88	n/a	n/a	n/a	j	8	0.03000000000000001	0	j	1	0.5582583686045837
18	28	68	n/a	n/a	n/a	j	8	0.04000000000000001	1	j	1	0.5702137595508248
18	29	88	n/a	n/a	n/a	j	8	0.03000000000000001	1	j	1	0.5171283911622595
18	30	88	n/a	n/a	n/a	j	8	0.02000000000000001	0	j	1	0.5856448067934252
18	31	68	n/a	n/a	n/a	j	8	0.03000000000000001	1	j	1	0.557117967895465
18	32	88	n/a	n/a	n/a	f	8	0.02000000000000001	0	f	1	0.5454012058035005
18	33	68	n/a	n/a	n/a	j	8	0.03000000000000001	0	j	1	0.5251092005055398
18	34	68	n/a	n/a	n/a	j	8	0.04000000000000001	0	j	1	0.5681476385507267
18	35	68	n/a	n/a	n/a	j	8	0.05000000000000002	1	j	1	0.5468389660236426
18	36	88	n/a	n/a	n/a	j	8	0.04000000000000001	0	j	1	0.5348294060386252
18	37	68	n/a	n/a	n/a	j	8	0.05000000000000002	1	j	1	0.6020352161431219
18	38	88	n/a	n/a	n/a	f	8	0.04000000000000001	1	f	1	0.5648521655821241
18	39	88	n/a	n/a	n/a	j	8	0.03000000000000001	1	j	1	0.5600969796651043
18	40	88	n/a	n/a	n/a	j	8	0.02000000000000001	0	j	1	0.5629294499813113
18	41	68	n/a	n/a	n/a	j	8	0.03000000000000001	1	j	1	0.5818224686954636
18	42	88	n/a	n/a	n/a	j	8	0.02000000000000001	1	j	1	0.568695030931849
18	43	88	n/a	n/a	n/a	j	8	0.01000000000000001	0	j	1	0.5807624662120361
18	44	68	n/a	n/a	n/a	f	8	0.02000000000000001	1	f	1	0.5864676058990881
18	45	88	n/a	n/a	n/a	j	8	0.01000000000000001	1	j	1	0.5977387564489618
18	46	88	n/a	n/a	n/a	j	8	1.040834085586084e-17	2	j	1	0.6083347897219937
18	47	108	n/a	n/a	n/a	j	8	0.01000000000000001	2	j	1	0.5236081480397843
18	48	108	n/a	n/a	n/a	j	8	0.02000000000000001	0	j	1	0.5505666508688591
18	49	68	n/a	n/a	n/a	j	8	0.03000000000000001	0	j	1	0.5611880580545403
18	50	68	n/a	n/a	n/a	f	8	0.04000000000000001	1	f	1	0.60424246173352
18	51	88	n/a	n/a	n/a	j	8	0.03000000000000001	1	j	1	0.5275679044716526
18	52	88	n/a	n/a	n/a	j	8	0.02000000000000001	0	j	1	0.5796026786847506
18	53	68	n/a	n/a	n/a	j	8	0.03000000000000001	1	j	1	0.6139589609520044
18	54	88	n/a	n/a	n/a	j	8	0.02000000000000001	2	j	1	0.6104074680479243
18	55	108	n/a	n/a	n/a	j	8	0.03000000000000001	1	j	1	0.5733367469219957
18	56	88	n/a	n/a	n/a	f	8	0.02000000000000001	1	j	0	0.584340758563485
18	57	128	n/a	n/a	n/a	j	8	0.01000000000000001	1	j	1	0.5553064413543325
18	58	88	n/a	n/a	n/a	j	8	1.040834085586084e-17	0	j	1	0.606142369331792
18	59	68	n/a	n/a	n/a	j	8	0.01000000000000001	2	j	1	0.5373502618167549
18	60	108	n/a	n/a	n/a	j	8	0.02000000000000001	0	j	1	0.5627441348333377
18	61	68	n/a	n/a	n/a	j	8	0.03000000000000001	1	j	1	0.5901317134266719
18	62	88	n/a	n/a	n/a	f	8	0.02000000000000001	1	f	1	0.5452118992689066
18	63	88	n/a	n/a	n/a	j	8	0.01000000000000001	0	j	1	0.5480554884998128
18	64	68	n/a	n/a	n/a	j	8	0.02000000000000001	0	j	1	0.5829945155128371
18	65	68	n/a	n/a	n/a	j	8	0.03000000000000001	1	j	1	0.5461036926426459
18	66	88	n/a	n/a	n/a	j	8	0.02000000000000001	0	j	1	0.6130101475864649
18	67	68	n/a	n/a	n/a	j	8	0.03000000000000001	2	j	1	0.616039051907137
18	68	108	n/a	n/a	n/a	f	8	0.04000000000000001	1	f	1	0.7949368488625623
18	69	88	n/a	n/a	n/a	j	8	0.03000000000000001	2	j	1	0.5337776714586653
18	70	108	n/a	n/a	n/a	j	8	0.04000000000000001	0	j	1	0.6167612106364686
18	71	68	n/a	n/a	n/a	j	8	0.05000000000000002	1	j	1	0.5715383349743206
19	0	82	j	1	0.07771602823049761	j	2	0.02000000000000001	2	j	1	0.4470273887272924
19	1	102	n/a	n/a	n/a	f	2	0.03000000000000001	2	f	1	0.424675249523716
19	2	102	n/a	n/a	n/a	j	2	0.04000000000000001	1	j	1	0.4359546679188497
19	3	82	n/a	n/a	n/a	j	2	0.03000000000000001	2	j	1	0.4469766408728901
19	4	102	n/a	n/a	n/a	j	2	0.04000000000000001	2	j	1	0.4587586909183301
19	5	102	n/a	n/a	n/a	f	2	0.05000000000000002	2	f	1	0.3759128551464528
19	6	102	n/a	n/a	n/a	j	2	0.06000000000000002	1	j	1	0.4428666366729885
19	7	82	n/a	n/a	n/a	j	2	0.05000000000000002	2	j	1	0.4373821645276621
19	8	102	n/a	n/a	n/a	j	2	0.06000000000000002	1	j	1	0.4329941876640078
19	9	82	n/a	n/a	n/a	f	2	0.05000000000000002	1	f	1	0.3956189795862883
19	10	82	n/a	n/a	n/a	j	2	0.04000000000000001	1	j	1	0.4227274450822733
19	11	82	n/a	n/a	n/a	j	2	0.03000000000000001	2	j	1	0.4256423093029298
19	12	102	n/a	n/a	n/a	j	2	0.04000000000000001	1	j	1	0.3966775565349963
19	13	82	n/a	n/a	n/a	f	2	0.03000000000000001	1	f	1	0.4238342039752752
19	14	82	n/a	n/a	n/a	j	2	0.02000000000000001	2	j	1	0.3702943858806975
19	15	102	n/a	n/a	n/a	j	2	0.03000000000000001	1	j	1	0.4216078566678334
19	16	82	n/a	n/a	n/a	j	2	0.02000000000000001	2	j	1	0.384741552406922
19	17	102	n/a	n/a	n/a	f	2	0.03000000000000001	1	f	1	0.4375954194692895
19	18	82	n/a	n/a	n/a	j	2	0.02000000000000001	2	j	1	0.4016633884748444
19	19	102	n/a	n/a	n/a	j	2	0.03000000000000001	1	j	1	0.4204951106803492
19	20	82	n/a	n/a	n/a	j	2	0.02000000000000001	2	j	1	0.4246250718715601
19	21	102	n/a	n/a	n/a	f	2	0.03000000000000001	2	f	1	0.403425307595171
19	22	102	n/a	n/a	n/a	j	2	0.04000000000000001	1	j	1	0.4140518466301728
19	23	82	n/a	n/a	n/a	j	2	0.03000000000000001	2	j	1	0.4254490114108194
19	24	102	n/a	n/a	n/a	j	2	0.04000000000000001	1	j	1	0.396361095336033
19	25	82	n/a	n/a	n/a	f	2	0.03000000000000001	1	f	1	0.4085793486447074
19	26	82	n/a	n/a	n/a	j	2	0.02000000000000001	2	j	1	0.36337585982983
19	27	102	n/a	n/a	n/a	j	2	0.03000000000000001	1	j	1	0.446351701306412
19	28	82	n/a	n/a	n/a	j	2	0.02000000000000001	2	j	1	0.4011667439772282
19	29	102	n/a	n/a	n/a	f	2	0.03000000000000001	1	f	1	0.3893975234532263
19	30	82	n/a	n/a	n/a	j	2	0.02000000000000001	1	j	1	0.3919828118814621
19	31	82	n/a	n/a	n/a	j	2	0.01000000000000001	1	j	1	0.4192891369166318
19	32	82	n/a	n/a	n/a	j	2	1.040834085586084e-17	2	j	1	0.40586975653423
19	33	102	n/a	n/a	n/a	f	2	0.01000000000000001	2	f	1	0.3607195814547595
19	34	102	n/a	n/a	n/a	j	2	0.02000000000000001	0	j	1	0.3971998600754887
19	35	62	n/a	n/a	n/a	j	2	0.03000000000000001	1	j	1	0.3608515828382224
19	36	82	n/a	n/a	n/a	j	2	0.02000000000000001	0	j	1	0.4280619545315858
19	37	62	n/a	n/a	n/a	f	2	0.03000000000000001	2	f	1	0.374720566207543
19	38	102	n/a	n/a	n/a	j	2	0.04000000000000001	1	j	1	0.4261024610023014
19	39	82	n/a	n/a	n/a	j	2	0.03000000000000001	2	j	1	0.4130334687652066
19	40	102	n/a	n/a	n/a	j	2	0.04000000000000001	1	j	1	0.3853616453125142
19	41	82	n/a	n/a	n/a	f	2	0.03000000000000001	1	f	1	0.3969176108948886
19	42	82	n/a	n/a	n/a	j	2	0.02000000000000001	1	j	1	0.3451254569226876
19	43	82	n/a	n/a	n/a	j	2	0.01000000000000001	0	j	1	0.4115486670343671
19	44	62	n/a	n/a	n/a	j	2	0.02000000000000001	2	j	1	0.4139466446358711
19	45	102	n/a	n/a	n/a	f	2	0.03000000000000001	2	f	1	0.4090534702409059
19	46	102	n/a	n/a	n/a	j	2	0.04000000000000001	1	j	1	0.4208030188747216
19	47	82	n/a	n/a	n/a	j	2	0.03000000000000001	2	j	1	0.3930852942576166
19	48	102	n/a	n/a	n/a	j	2	0.04000000000000001	1	j	1	0.3954464939888567
19	49	82	n/a	n/a	n/a	f	2	0.03000000000000001	1	f	1	0.4148087875801139
19	50	82	n/a	n/a	n/a	j	2	0.02000000000000001	2	j	1	0.4176600744831376
19	51	102	n/a	n/a	n/a	j	2	0.03000000000000001	1	j	1	0.4301143907359801
19	52	82	n/a	n/a	n/a	j	2	0.02000000000000001	2	j	1	0.3762906128831673
19	53	102	n/a	n/a	n/a	f	2	0.03000000000000001	1	f	1	0.3955494151159655
19	54	82	n/a	n/a	n/a	j	2	0.02000000000000001	1	j	1	0.4066822920576669
19	55	82	n/a	n/a	n/a	j	2	0.01000000000000001	2	j	1	0.3616752372472547
19	56	102	n/a	n/a	n/a	j	2	0.02000000000000001	0	j	1	0.4447314769495279
19	57	62	n/a	n/a	n/a	f	2	0.03000000000000001	2	f	1	0.375807653152151
19	58	102	n/a	n/a	n/a	j	2	0.04000000000000001	1	j	1	0.4356065606116317
19	59	82	n/a	n/a	n/a	j	2	0.03000000000000001	2	j	1	0.4225752015772741
19	60	102	n/a	n/a	n/a	j	2	0.04000000000000001	1	j	1	0.4415394953684881
19	61	82	n/a	n/a	n/a	f	2	0.03000000000000001	2	f	1	0.3645926674071234
19	62	102	n/a	n/a	n/a	j	2	0.04000000000000001	1	j	1	0.431708956049988
19	63	82	n/a	n/a	n/a	j	2	0.03000000000000001	2	j	1	0.4104698479641229
19	64	102	n/a	n/a	n/a	j	2	0.04000000000000001	1	j	1	0.4214892550080549
19	65	82	n/a	n/a	n/a	f	2	0.03000000000000001	2	f	1	0.3765531901444774
19	66	102	n/a	n/a	n/a	j	2	0.04000000000000001	1	j	1	0.451454994501546
19	67	82	n/a	n/a	n/a	j	2	0.03000000000000001	2	j	1	0.4063669712631963
19	68	102	n/a	n/a	n/a	j	2	0.04000000000000001	1	j	1	0.4015630332287401
19	69	82	n/a	n/a	n/a	f	2	0.03000000000000001	1	f	1	0.3983955702278763
19	70	82	n/a	n/a	n/a	j	2	0.02000000000000001	1	j	1	0.4176774655934423
19	71	82	n/a	n/a	n/a	j	2	0.01000000000000001	2	j	1	0.4038435495749582
20	0	104	j	1	0.06718100639409386	j	4	1.040834085586084e-17	2	j	1	0.4024918896029703
