blockLoop_thisRepN	trialLoop_thisRepN	trigger	firstKey	readyKey_corr	readyKey_rt	targetKey	blockType	margin	outcome	trialResp_keys	trialResp_corr	trialResp_rt
0	0	130	j	0	4.008701755747097	j	10	0.1	0	j	1	0.9665269497272675
0	1	70	n/a	n/a	n/a	f	10	0.11	0	j	0	0.8598861091213621
0	2	130	n/a	n/a	n/a	j	10	0.1	0	j	1	0.9461016864097473
0	3	70	n/a	n/a	n/a	j	10	0.11	0	f	0	0.8321594905646634
0	4	130	n/a	n/a	n/a	j	10	0.1	0	j	1	0.8268073491381074
0	5	70	n/a	n/a	n/a	f	10	0.11	0	j	0	0.8967886011050723
0	6	130	n/a	n/a	n/a	j	10	0.12	1	j	1	0.7986348375852685
0	7	90	n/a	n/a	n/a	j	10	0.11	1	f	0	0.9544544824220793
0	8	130	n/a	n/a	n/a	j	10	0.12	1	j	1	0.9033418596591218
0	9	90	n/a	n/a	n/a	f	10	0.11	1	j	0	0.8436398096928315
0	10	130	n/a	n/a	n/a	j	10	0.1	0	j	1	1.193998804868897
0	11	70	n/a	n/a	n/a	j	10	0.11	0	f	0	3.864299423417833
0	12	130	n/a	n/a	n/a	j	10	0.12	2	j	1	1.035124336862282
0	13	110	n/a	n/a	n/a	f	10	0.13	2	j	0	0.8965422765850235
0	14	130	n/a	n/a	n/a	j	10	0.12	1	j	1	0.786718033690704
0	15	90	n/a	n/a	n/a	j	10	0.11	1	f	0	1.015237908432027
0	16	130	n/a	n/a	n/a	j	10	0.12	1	j	1	0.7860614534074557
0	17	90	n/a	n/a	n/a	f	10	0.11	1	j	0	0.9168703215436835
0	18	130	n/a	n/a	n/a	j	10	0.12	1	j	1	0.9798202059082541
0	19	90	n/a	n/a	n/a	j	10	0.11	1	f	0	0.8809058013976028
0	20	130	n/a	n/a	n/a	j	10	0.1	0	j	1	0.7419459865068347
0	21	70	n/a	n/a	n/a	f	10	0.11	0	j	0	0.9077263790750294
0	22	130	n/a	n/a	n/a	j	10	0.12	1	j	1	0.8627345214681554
0	23	90	n/a	n/a	n/a	j	10	0.11	1	f	0	0.9379213745814923
0	24	130	n/a	n/a	n/a	j	10	0.12	1	j	1	0.7815608991768386
0	25	90	n/a	n/a	n/a	f	10	0.11	1	j	0	0.8825012088145741
0	26	130	n/a	n/a	n/a	j	10	0.12	1	j	1	0.9003198227383109
0	27	90	n/a	n/a	n/a	j	10	0.11	1	j	1	5.631245923101233
0	28	90	n/a	n/a	n/a	j	10	0.1	1	f	0	2.176350394347537
0	29	130	n/a	n/a	n/a	f	10	0.11	2	f	1	1.946807588619777
0	30	110	n/a	n/a	n/a	j	10	0.12	2	j	1	3.087607995053986
0	31	110	n/a	n/a	n/a	j	10	0.13	2	f	0	1.067504607181036
0	32	130	n/a	n/a	n/a	j	10	0.14	1	j	1	1.415752167882601
0	33	90	n/a	n/a	n/a	f	10	0.13	1	j	0	1.330361378597445
0	34	130	n/a	n/a	n/a	j	10	0.14	2	j	1	1.148919992427182
0	35	110	n/a	n/a	n/a	j	10	0.15	2	j	1	1.485440624386683
0	36	110	n/a	n/a	n/a	j	10	0.16	2	j	1	1.20247390784607
0	37	110	n/a	n/a	n/a	f	10	0.17	2	f	1	1.205607418018189
0	38	110	n/a	n/a	n/a	j	10	0.18	2	j	1	1.092066354807685
0	39	110	n/a	n/a	n/a	j	10	0.1900000000000001	1	j	1	1.156029476833282
0	40	90	n/a	n/a	n/a	j	10	0.18	1	j	1	1.114095293376522
0	41	90	n/a	n/a	n/a	f	10	0.17	1	f	1	1.128414331526074
0	42	90	n/a	n/a	n/a	j	10	0.16	1	j	1	0.9070831983881362
0	43	90	n/a	n/a	n/a	j	10	0.15	1	j	1	1.006098242429289
0	44	90	n/a	n/a	n/a	j	10	0.14	1	j	1	0.9229161059738544
0	45	90	n/a	n/a	n/a	f	10	0.13	1	f	1	0.8977542274296866
0	46	90	n/a	n/a	n/a	j	10	0.12	1	j	1	0.8397439479431341
0	47	90	n/a	n/a	n/a	j	10	0.11	0	j	1	0.9407113418765221
0	48	70	n/a	n/a	n/a	j	10	0.12	1	j	1	0.8796197251194826
0	49	90	n/a	n/a	n/a	f	10	0.11	1	f	1	0.9257462720615877
0	50	90	n/a	n/a	n/a	j	10	0.1	1	j	1	0.8824803966745094
0	51	90	n/a	n/a	n/a	j	10	0.09000000000000002	0	j	1	0.9054079635807284
0	52	70	n/a	n/a	n/a	j	10	0.1	1	j	1	0.8941850877872639
0	53	90	n/a	n/a	n/a	f	10	0.09000000000000002	0	f	1	0.8854553924538777
0	54	70	n/a	n/a	n/a	j	10	0.1	1	j	1	0.9222615213730023
0	55	90	n/a	n/a	n/a	j	10	0.09000000000000002	1	j	1	0.9114805472054286
0	56	90	n/a	n/a	n/a	j	10	0.08000000000000003	1	j	1	0.8901221587166219
0	57	90	n/a	n/a	n/a	f	10	0.07000000000000003	0	f	1	0.9052055441261473
0	58	70	n/a	n/a	n/a	j	10	0.08000000000000003	1	j	1	0.8803338951656769
0	59	90	n/a	n/a	n/a	j	10	0.07000000000000003	0	j	1	0.8174535746693437
0	60	70	n/a	n/a	n/a	j	10	0.08000000000000003	0	j	1	0.8677887356698193
0	61	70	n/a	n/a	n/a	f	10	0.09000000000000002	0	f	1	0.871191948381238
0	62	70	n/a	n/a	n/a	j	10	0.1	0	j	1	0.9567617790999066
0	63	70	n/a	n/a	n/a	j	10	0.11	1	j	1	1.055935052434506
0	64	90	n/a	n/a	n/a	j	10	0.1	1	j	1	0.9008321435267135
0	65	90	n/a	n/a	n/a	f	10	0.09000000000000002	1	f	1	0.8819512551144726
0	66	90	n/a	n/a	n/a	j	10	0.08000000000000003	0	j	1	0.8618313315673731
0	67	70	n/a	n/a	n/a	j	10	0.09000000000000002	0	j	1	0.8938706248900417
0	68	70	n/a	n/a	n/a	j	10	0.1	1	j	1	0.8997487717988406
0	69	90	n/a	n/a	n/a	f	10	0.09000000000000002	1	f	1	0.9667604448441125
0	70	90	n/a	n/a	n/a	j	10	0.08000000000000003	1	j	1	0.8355071091991704
0	71	90	n/a	n/a	n/a	j	10	0.07000000000000003	0	j	1	0.8522982305676123
1	0	64	j	1	3.721056298836629	j	4	0.1	0	f	0	0.4353429498733021
1	1	124	n/a	n/a	n/a	j	4	0.11	0	f	0	0.3752659962683538
1	2	124	n/a	n/a	n/a	f	4	0.1	0	j	0	0.4311503012904723
1	3	124	n/a	n/a	n/a	j	4	0.09000000000000001	0	f	0	0.4620466374417447
1	4	124	n/a	n/a	n/a	j	4	0.08000000000000002	0	f	0	0.4380681999591616
1	5	124	n/a	n/a	n/a	j	4	0.07000000000000002	1	j	1	0.6420508454866649
1	6	84	n/a	n/a	n/a	j	4	0.06000000000000002	1	f	0	0.4540476478287019
1	7	124	n/a	n/a	n/a	j	4	0.07000000000000002	1	j	1	0.511246824011323
1	8	84	n/a	n/a	n/a	f	4	0.06000000000000002	1	j	0	0.4596521008279524
1	9	124	n/a	n/a	n/a	j	4	0.07000000000000002	1	f	0	0.665294300779351
1	10	124	n/a	n/a	n/a	j	4	0.08000000000000002	1	f	0	0.5028926025097462
1	11	124	n/a	n/a	n/a	j	4	0.09000000000000001	2	j	1	0.6349430716654751
1	12	104	n/a	n/a	n/a	j	4	0.1	2	f	0	0.6581742677535658
1	13	124	n/a	n/a	n/a	j	4	0.11	2	f	0	1.030599834413806
1	14	124	n/a	n/a	n/a	f	4	0.12	2	j	0	0.7177634189847595
1	15	124	n/a	n/a	n/a	j	4	0.13	2	f	0	0.1857264064456103
1	16	124	n/a	n/a	n/a	j	4	0.14	0	j	1	0.483702097864807
1	17	64	n/a	n/a	n/a	j	4	0.15	1	j	1	1.681631261319126
1	18	84	n/a	n/a	n/a	j	4	0.14	1	f	0	0.9930287880379183
1	19	124	n/a	n/a	n/a	j	4	0.15	1	f	0	0.6134700738512038
1	20	124	n/a	n/a	n/a	f	4	0.16	1	j	0	1.161268149327952
1	21	124	n/a	n/a	n/a	j	4	0.17	1	f	0	1.376381869145916
1	22	124	n/a	n/a	n/a	j	4	0.18	2	j	1	0.8213551383760205
1	23	104	n/a	n/a	n/a	j	4	0.1900000000000001	2	j	1	0.6883259283913503
1	24	104	n/a	n/a	n/a	j	4	0.2000000000000001	2	f	0	0.5804412059860624
1	25	124	n/a	n/a	n/a	j	4	0.2100000000000001	2	f	0	0.54929170296964
1	26	124	n/a	n/a	n/a	f	4	0.2000000000000001	2	j	0	0.4732526924635749
1	27	124	n/a	n/a	n/a	j	4	0.1900000000000001	2	f	0	0.604405673673682
1	28	124	n/a	n/a	n/a	j	4	0.18	2	f	0	0.6715071525341045
1	29	124	n/a	n/a	n/a	j	4	0.1900000000000001	2	j	1	0.6359252336660575
1	30	104	n/a	n/a	n/a	j	4	0.2000000000000001	2	f	0	0.9201232877039729
1	31	124	n/a	n/a	n/a	j	4	0.2100000000000001	2	j	1	1.065017413773603
1	32	104	n/a	n/a	n/a	f	4	0.2200000000000001	2	j	0	2.005787770900497
1	33	124	n/a	n/a	n/a	j	4	0.2300000000000001	2	j	1	2.377929665226475
1	34	104	n/a	n/a	n/a	j	4	0.2400000000000001	2	j	1	0.5655913156915631
1	35	104	n/a	n/a	n/a	j	4	0.2500000000000001	2	f	0	1.443764739557082
1	36	124	n/a	n/a	n/a	j	4	0.2400000000000001	2	j	1	7.841486750934564
1	37	104	n/a	n/a	n/a	j	4	0.2500000000000001	2	f	0	0.8174173672468896
1	38	124	n/a	n/a	n/a	f	4	0.2600000000000001	2	j	0	3.5588920870523
1	39	124	n/a	n/a	n/a	j	4	0.2700000000000001	2	j	1	2.207968027989409
1	40	104	n/a	n/a	n/a	j	4	0.2800000000000001	2	f	0	3.095965352631538
1	41	124	n/a	n/a	n/a	j	4	0.2900000000000001	2	j	1	1.881800723464039
1	42	104	n/a	n/a	n/a	j	4	0.3000000000000002	2	f	0	1.446567821350982
1	43	124	n/a	n/a	n/a	j	4	0.3100000000000002	2	j	1	1.188579950552594
1	44	104	n/a	n/a	n/a	f	4	0.3200000000000002	2	j	0	0.81086239810611
1	45	124	n/a	n/a	n/a	j	4	0.3300000000000002	2	f	0	0.7928285353264073
1	46	124	n/a	n/a	n/a	j	4	0.3400000000000002	2	f	0	1.399368451302507
1	47	124	n/a	n/a	n/a	j	4	0.3500000000000002	2	f	0	1.077419454162737
1	48	124	n/a	n/a	n/a	j	4	0.3600000000000002	2	j	1	2.187485460011885
1	49	104	n/a	n/a	n/a	j	4	0.3700000000000002	2	j	1	1.345484962801493
1	50	104	n/a	n/a	n/a	f	4	0.3800000000000002	2	f	1	0.9611080954109639
1	51	104	n/a	n/a	n/a	j	4	0.3900000000000002	2	j	1	0.680960711239095
1	52	104	n/a	n/a	n/a	j	4	0.4000000000000002	1	j	1	0.8170612800677191
1	53	84	n/a	n/a	n/a	j	4	0.3900000000000002	1	f	0	1.268095158809956
1	54	124	n/a	n/a	n/a	j	4	0.4000000000000002	2	j	1	9.791481163018034
1	55	104	n/a	n/a	n/a	j	4	0.4100000000000003	2	j	1	0.5525093169962929
1	56	104	n/a	n/a	n/a	f	4	0.4200000000000003	2	j	0	0.5893753164582449
1	57	124	n/a	n/a	n/a	j	4	0.4100000000000003	2	f	0	0.8134522267282591
1	58	124	n/a	n/a	n/a	j	4	0.4000000000000002	2	j	1	2.306969102237417
1	59	104	n/a	n/a	n/a	j	4	0.4100000000000003	2	j	1	1.914795664688427
1	60	104	n/a	n/a	n/a	j	4	0.4200000000000003	2	j	1	1.278684547241937
1	61	104	n/a	n/a	n/a	j	4	0.4300000000000003	2	j	1	1.132835628561224
1	62	104	n/a	n/a	n/a	f	4	0.4400000000000003	2	j	0	1.134657688744483
1	63	124	n/a	n/a	n/a	j	4	0.4500000000000003	2	j	1	2.26156784415798
1	64	104	n/a	n/a	n/a	j	4	0.4600000000000003	2	j	1	0.6890911309474177
1	65	104	n/a	n/a	n/a	j	4	0.4700000000000003	1	j	1	0.6646571071469225
1	66	84	n/a	n/a	n/a	j	4	0.4600000000000003	1	f	0	1.006624533010836
1	67	124	n/a	n/a	n/a	j	4	0.4500000000000003	2	j	1	1.747015881090192
1	68	104	n/a	n/a	n/a	f	4	0.4600000000000003	2	j	0	0.9502720973614487
1	69	124	n/a	n/a	n/a	j	4	0.4700000000000003	2	j	1	1.96319358598339
1	70	104	n/a	n/a	n/a	j	4	0.4800000000000003	2	j	1	21.64685474379985
1	71	104	n/a	n/a	n/a	j	4	0.4900000000000003	2	f	0	3.174560550216484
2	0	131	f	0	4.295094777919076	f	11	0.1	2	f	1	1.888422405494566
2	1	111	n/a	n/a	n/a	f	11	0.11	2	f	1	0.7963053032763128
2	2	111	n/a	n/a	n/a	j	11	0.12	2	f	0	0.8948239920064225
2	3	131	n/a	n/a	n/a	f	11	0.13	1	f	1	1.428971013534465
2	4	91	n/a	n/a	n/a	f	11	0.12	2	f	1	0.8189360833493993
2	5	111	n/a	n/a	n/a	f	11	0.13	0	f	1	0.7208484625243727
2	6	71	n/a	n/a	n/a	f	11	0.14	0	j	0	0.885015201416536
2	7	131	n/a	n/a	n/a	f	11	0.15	1	f	1	0.8921808500927
2	8	91	n/a	n/a	n/a	j	11	0.14	1	f	0	0.8590727250339114
2	9	131	n/a	n/a	n/a	f	11	0.13	0	f	1	0.7990208600367623
2	10	71	n/a	n/a	n/a	f	11	0.14	0	f	1	0.9070917513217864
2	11	71	n/a	n/a	n/a	f	11	0.15	1	f	1	0.8238363447271695
2	12	91	n/a	n/a	n/a	f	11	0.14	0	f	1	0.9361281092769786
2	13	71	n/a	n/a	n/a	f	11	0.15	1	f	1	0.9346014104357891
2	14	91	n/a	n/a	n/a	j	11	0.14	1	f	0	0.8477737281227746
2	15	131	n/a	n/a	n/a	f	11	0.13	0	f	1	0.8984555680744961
2	16	71	n/a	n/a	n/a	f	11	0.14	1	f	1	0.8664373719911964
2	17	91	n/a	n/a	n/a	f	11	0.13	1	f	1	0.9013672721375769
2	18	91	n/a	n/a	n/a	f	11	0.12	1	f	1	0.9553226052921673
2	19	91	n/a	n/a	n/a	f	11	0.11	1	f	1	1.049218147731153
2	20	91	n/a	n/a	n/a	j	11	0.1	1	f	0	1.127172445409087
2	21	131	n/a	n/a	n/a	f	11	0.09000000000000002	2	f	1	0.95012128061353
2	22	111	n/a	n/a	n/a	f	11	0.1	1	f	1	0.8930643682451773
2	23	91	n/a	n/a	n/a	f	11	0.09000000000000002	0	f	1	0.938956849873648
2	24	71	n/a	n/a	n/a	f	11	0.1	1	f	1	0.9059257012249873
2	25	91	n/a	n/a	n/a	f	11	0.09000000000000002	1	f	1	0.9040420599121717
2	26	91	n/a	n/a	n/a	j	11	0.08000000000000003	0	j	1	0.8767405222079105
2	27	71	n/a	n/a	n/a	f	11	0.09000000000000002	0	f	1	0.8827720517456328
2	28	71	n/a	n/a	n/a	f	11	0.1	1	f	1	0.8401476464605366
2	29	91	n/a	n/a	n/a	f	11	0.09000000000000002	0	f	1	0.9011064076312323
2	30	71	n/a	n/a	n/a	f	11	0.1	1	f	1	0.8345340703308466
2	31	91	n/a	n/a	n/a	f	11	0.09000000000000002	0	f	1	0.8876093065046007
2	32	71	n/a	n/a	n/a	j	11	0.1	0	f	0	1.017498734165201
2	33	131	n/a	n/a	n/a	f	11	0.09000000000000002	1	f	1	1.023183869849163
2	34	91	n/a	n/a	n/a	f	11	0.08000000000000003	1	f	1	0.8373243227215426
2	35	91	n/a	n/a	n/a	f	11	0.07000000000000003	0	f	1	0.8545530692499597
2	36	71	n/a	n/a	n/a	f	11	0.08000000000000003	0	f	1	0.88608887981718
2	37	71	n/a	n/a	n/a	f	11	0.09000000000000002	0	f	1	0.7874014131721196
2	38	71	n/a	n/a	n/a	j	11	0.1	0	j	1	0.7112016074952408
2	39	71	n/a	n/a	n/a	f	11	0.11	0	f	1	0.933067013953405
2	40	71	n/a	n/a	n/a	f	11	0.12	1	f	1	0.8341834000093513
2	41	91	n/a	n/a	n/a	f	11	0.11	0	f	1	0.8668858308665222
2	42	71	n/a	n/a	n/a	f	11	0.12	1	f	1	0.8248929172586941
2	43	91	n/a	n/a	n/a	f	11	0.11	0	f	1	0.8039858386218839
2	44	71	n/a	n/a	n/a	j	11	0.12	0	f	0	0.8564372807595646
2	45	131	n/a	n/a	n/a	f	11	0.13	0	f	1	0.8449455577210756
2	46	71	n/a	n/a	n/a	f	11	0.14	1	f	1	0.8021090396541695
2	47	91	n/a	n/a	n/a	f	11	0.13	0	f	1	0.9071618853868131
2	48	71	n/a	n/a	n/a	f	11	0.14	1	f	1	0.9389662581033917
2	49	91	n/a	n/a	n/a	f	11	0.13	1	f	1	0.8805152173808892
2	50	91	n/a	n/a	n/a	j	11	0.12	1	j	1	0.7965607509249821
2	51	91	n/a	n/a	n/a	f	11	0.11	0	f	1	0.9015009830163763
2	52	71	n/a	n/a	n/a	f	11	0.12	1	f	1	0.8039262531747227
2	53	91	n/a	n/a	n/a	f	11	0.11	0	f	1	0.8482632410832593
2	54	71	n/a	n/a	n/a	f	11	0.12	0	f	1	0.8757101786759449
2	55	71	n/a	n/a	n/a	f	11	0.13	1	f	1	1.023771741560267
2	56	91	n/a	n/a	n/a	j	11	0.12	1	f	0	0.9412544532278844
2	57	131	n/a	n/a	n/a	f	11	0.11	1	f	1	0.8635342208617658
2	58	91	n/a	n/a	n/a	f	11	0.1	0	f	1	0.8582684640769003
2	59	71	n/a	n/a	n/a	f	11	0.11	0	f	1	0.8731762292263738
2	60	71	n/a	n/a	n/a	f	11	0.12	1	f	1	0.8310122569255327
2	61	91	n/a	n/a	n/a	f	11	0.11	0	f	1	1.035782627735898
2	62	71	n/a	n/a	n/a	j	11	0.12	1	j	1	0.8514566217963875
2	63	91	n/a	n/a	n/a	f	11	0.11	0	f	1	0.7998904083960952
2	64	71	n/a	n/a	n/a	f	11	0.12	0	f	1	0.860681817144723
2	65	71	n/a	n/a	n/a	f	11	0.13	1	f	1	0.8010692878942791
2	66	91	n/a	n/a	n/a	f	11	0.12	0	f	1	0.8285113788242597
2	67	71	n/a	n/a	n/a	f	11	0.13	0	f	1	0.8345189601459424
2	68	71	n/a	n/a	n/a	j	11	0.14	0	j	1	0.8388456047032378
2	69	71	n/a	n/a	n/a	f	11	0.15	1	f	1	0.8117185468690877
2	70	91	n/a	n/a	n/a	f	11	0.14	0	f	1	0.8948439488558506
2	71	71	n/a	n/a	n/a	f	11	0.15	1	f	1	0.8572959954035468
3	0	82	j	1	0.06715023058859515	j	2	0.1	2	j	1	0.4109408570275264
3	1	102	n/a	n/a	n/a	f	2	0.11	1	f	1	0.3994767884760222
3	2	82	n/a	n/a	n/a	j	2	0.1	1	j	1	0.4123786053460208
3	3	82	n/a	n/a	n/a	j	2	0.09000000000000001	1	j	1	0.4159434685225278
3	4	82	n/a	n/a	n/a	j	2	0.08000000000000002	1	j	1	0.4285858463754266
3	5	82	n/a	n/a	n/a	f	2	0.07000000000000002	1	f	1	0.442852141426556
3	6	82	n/a	n/a	n/a	j	2	0.06000000000000002	1	j	1	0.4135554891599895
3	7	82	n/a	n/a	n/a	j	2	0.05000000000000002	1	j	1	0.4437539058399125
3	8	82	n/a	n/a	n/a	j	2	0.04000000000000001	2	j	1	0.4427959771564929
3	9	102	n/a	n/a	n/a	f	2	0.05000000000000002	2	f	1	0.4295241033105412
3	10	102	n/a	n/a	n/a	j	2	0.06000000000000002	1	j	1	0.4340893747466907
3	11	82	n/a	n/a	n/a	j	2	0.05000000000000002	1	j	1	0.3249878548322158
3	12	82	n/a	n/a	n/a	j	2	0.04000000000000001	0	j	1	0.4491969934733788
3	13	62	n/a	n/a	n/a	f	2	0.05000000000000002	2	f	1	0.398304181129788
3	14	102	n/a	n/a	n/a	j	2	0.06000000000000002	1	j	1	0.4415241557671834
3	15	82	n/a	n/a	n/a	j	2	0.05000000000000002	2	j	1	0.4054210780795984
3	16	102	n/a	n/a	n/a	j	2	0.06000000000000002	1	j	1	0.4322812843547581
3	17	82	n/a	n/a	n/a	f	2	0.05000000000000002	1	j	0	0.3165806051383697
3	18	122	n/a	n/a	n/a	j	2	0.04000000000000001	1	f	0	0.6276650944473658
3	19	122	n/a	n/a	n/a	j	2	0.05000000000000002	2	j	1	0.9190775488896179
3	20	102	n/a	n/a	n/a	j	2	0.06000000000000002	2	j	1	0.4271837352825969
3	21	102	n/a	n/a	n/a	f	2	0.07000000000000002	1	f	1	0.4313053945061256
3	22	82	n/a	n/a	n/a	j	2	0.06000000000000002	1	j	1	0.4371843967091991
3	23	82	n/a	n/a	n/a	j	2	0.05000000000000002	2	j	1	0.3052089082793827
3	24	102	n/a	n/a	n/a	j	2	0.06000000000000002	0	j	1	0.4468386642820406
3	25	62	n/a	n/a	n/a	f	2	0.07000000000000002	1	f	1	0.3931256642772496
3	26	82	n/a	n/a	n/a	j	2	0.06000000000000002	1	j	1	0.4459865068893123
3	27	82	n/a	n/a	n/a	j	2	0.05000000000000002	2	j	1	0.3863044137706311
3	28	102	n/a	n/a	n/a	j	2	0.06000000000000002	1	j	1	0.4189854622909479
3	29	82	n/a	n/a	n/a	f	2	0.05000000000000002	1	f	1	0.3931424850507028
3	30	82	n/a	n/a	n/a	j	2	0.04000000000000001	1	j	1	0.3959273205819045
3	31	82	n/a	n/a	n/a	j	2	0.03000000000000001	1	j	1	0.442108891402313
3	32	82	n/a	n/a	n/a	j	2	0.02000000000000001	2	j	1	0.438856495440632
3	33	102	n/a	n/a	n/a	f	2	0.03000000000000001	2	f	1	0.3445726497666328
3	34	102	n/a	n/a	n/a	j	2	0.04000000000000001	1	j	1	0.4483100541456224
3	35	82	n/a	n/a	n/a	j	2	0.03000000000000001	2	j	1	0.4198210840113461
3	36	102	n/a	n/a	n/a	j	2	0.04000000000000001	1	j	1	0.4429279774467432
3	37	82	n/a	n/a	n/a	f	2	0.03000000000000001	2	f	1	0.3897164645131852
3	38	102	n/a	n/a	n/a	j	2	0.04000000000000001	1	j	1	0.4138257618942589
3	39	82	n/a	n/a	n/a	j	2	0.03000000000000001	1	j	1	0.3795259279359016
3	40	82	n/a	n/a	n/a	j	2	0.02000000000000001	1	j	1	0.4389842192649667
3	41	82	n/a	n/a	n/a	f	2	0.01000000000000001	2	f	1	0.3717470338415296
3	42	102	n/a	n/a	n/a	j	2	0.02000000000000001	1	j	1	0.4446208883182408
3	43	82	n/a	n/a	n/a	j	2	0.01000000000000001	2	j	1	0.3846508463975624
3	44	102	n/a	n/a	n/a	j	2	0.02000000000000001	1	j	1	0.4214512733615265
3	45	82	n/a	n/a	n/a	f	2	0.01000000000000001	2	f	1	0.4106158455088007
3	46	102	n/a	n/a	n/a	j	2	0.02000000000000001	2	j	1	0.4214968890137243
3	47	102	n/a	n/a	n/a	j	2	0.03000000000000001	2	j	1	0.3625711604163371
3	48	102	n/a	n/a	n/a	j	2	0.04000000000000001	1	j	1	0.4718976225121878
3	49	82	n/a	n/a	n/a	f	2	0.03000000000000001	2	f	1	0.2924653207010124
3	50	102	n/a	n/a	n/a	j	2	0.04000000000000001	0	j	1	0.4488816752800631
3	51	62	n/a	n/a	n/a	j	2	0.05000000000000002	2	j	1	0.3724010482474114
3	52	102	n/a	n/a	n/a	j	2	0.06000000000000002	1	j	1	0.4173455796153576
3	53	82	n/a	n/a	n/a	f	2	0.05000000000000002	1	f	1	0.4369554631593928
3	54	82	n/a	n/a	n/a	j	2	0.04000000000000001	2	j	1	0.4040805481163261
3	55	102	n/a	n/a	n/a	j	2	0.05000000000000002	1	j	1	0.4006436938634579
3	56	82	n/a	n/a	n/a	j	2	0.04000000000000001	1	j	1	0.3833607787510118
3	57	82	n/a	n/a	n/a	f	2	0.03000000000000001	1	f	1	0.4109987318843196
3	58	82	n/a	n/a	n/a	j	2	0.02000000000000001	2	j	1	0.4424786632789619
3	59	102	n/a	n/a	n/a	j	2	0.03000000000000001	2	j	1	0.4143842685298296
3	60	102	n/a	n/a	n/a	j	2	0.04000000000000001	1	j	1	0.4021629801627569
3	61	82	n/a	n/a	n/a	f	2	0.03000000000000001	1	f	1	0.3724894285733171
3	62	82	n/a	n/a	n/a	j	2	0.02000000000000001	1	j	1	0.4021410276291135
3	63	82	n/a	n/a	n/a	j	2	0.01000000000000001	2	j	1	0.389227806845156
3	64	102	n/a	n/a	n/a	j	2	0.02000000000000001	1	j	1	0.4164201520834467
3	65	82	n/a	n/a	n/a	f	2	0.01000000000000001	2	f	1	0.3982665482180892
3	66	102	n/a	n/a	n/a	j	2	0.02000000000000001	1	j	1	0.3932505371230945
3	67	82	n/a	n/a	n/a	j	2	0.01000000000000001	1	j	1	0.4220100650945824
3	68	82	n/a	n/a	n/a	j	2	1.040834085586084e-17	2	j	1	0.4008521003725036
3	69	102	n/a	n/a	n/a	f	2	0.01000000000000001	2	f	1	0.4680986940238654
3	70	102	n/a	n/a	n/a	j	2	0.02000000000000001	2	j	1	0.4138260469935631
3	71	102	n/a	n/a	n/a	j	2	0.03000000000000001	1	j	1	0.4099407338635501
4	0	85	f	1	0.02077849952001998	f	5	0.1	0	f	1	0.590049572809221
4	1	65	n/a	n/a	n/a	j	5	0.11	1	j	1	0.5341333368305641
4	2	85	n/a	n/a	n/a	f	5	0.1	1	f	1	0.6199221226797818
4	3	85	n/a	n/a	n/a	f	5	0.09000000000000001	1	f	1	0.6179466798639623
4	4	85	n/a	n/a	n/a	f	5	0.08000000000000002	1	f	1	0.5539470653184253
4	5	85	n/a	n/a	n/a	j	5	0.07000000000000002	1	j	1	0.5449411101926671
4	6	85	n/a	n/a	n/a	f	5	0.06000000000000002	1	f	1	0.6008838602701871
4	7	85	n/a	n/a	n/a	f	5	0.05000000000000002	1	f	1	0.5848376995108993
4	8	85	n/a	n/a	n/a	f	5	0.04000000000000001	1	f	1	0.5489185099195311
4	9	85	n/a	n/a	n/a	j	5	0.03000000000000001	0	j	1	0.5308664008807682
4	10	65	n/a	n/a	n/a	f	5	0.04000000000000001	0	f	1	0.6116249207425426
4	11	65	n/a	n/a	n/a	f	5	0.05000000000000002	1	f	1	0.5937062374850939
4	12	85	n/a	n/a	n/a	f	5	0.04000000000000001	1	f	1	0.5544970190185268
4	13	85	n/a	n/a	n/a	j	5	0.03000000000000001	1	j	1	0.5442021366379777
4	14	85	n/a	n/a	n/a	f	5	0.02000000000000001	0	f	1	0.5606163586835464
4	15	65	n/a	n/a	n/a	f	5	0.03000000000000001	1	f	1	0.6376523562757939
4	16	85	n/a	n/a	n/a	f	5	0.02000000000000001	2	f	1	0.5603007553963835
4	17	105	n/a	n/a	n/a	j	5	0.03000000000000001	1	j	1	0.5823855731377989
4	18	85	n/a	n/a	n/a	f	5	0.02000000000000001	1	f	1	0.5469892529526987
4	19	85	n/a	n/a	n/a	f	5	0.01000000000000001	0	f	1	0.5772532421324286
4	20	65	n/a	n/a	n/a	f	5	0.02000000000000001	1	f	1	0.5495206365212653
4	21	85	n/a	n/a	n/a	j	5	0.01000000000000001	0	j	1	0.5235376762466331
4	22	65	n/a	n/a	n/a	f	5	0.02000000000000001	0	f	1	0.6348638144718279
4	23	65	n/a	n/a	n/a	f	5	0.03000000000000001	2	f	1	0.5342342614603695
4	24	105	n/a	n/a	n/a	f	5	0.04000000000000001	0	f	1	0.5584336497540789
4	25	65	n/a	n/a	n/a	j	5	0.05000000000000002	1	j	1	0.5716824306746275
4	26	85	n/a	n/a	n/a	f	5	0.04000000000000001	1	f	1	0.5621008630478173
4	27	85	n/a	n/a	n/a	f	5	0.03000000000000001	1	f	1	0.6092429284344689
4	28	85	n/a	n/a	n/a	f	5	0.02000000000000001	1	f	1	0.5830737992819195
4	29	85	n/a	n/a	n/a	j	5	0.01000000000000001	1	j	1	0.5191491654622951
4	30	85	n/a	n/a	n/a	f	5	1.040834085586084e-17	0	f	1	0.5411270715212595
4	31	65	n/a	n/a	n/a	f	5	0.01000000000000001	0	f	1	0.5761801339267549
4	32	65	n/a	n/a	n/a	f	5	0.02000000000000001	1	f	1	0.6227405997542519
4	33	85	n/a	n/a	n/a	j	5	0.01000000000000001	2	j	1	0.523960191219885
4	34	105	n/a	n/a	n/a	f	5	0.02000000000000001	0	f	1	0.5729533967696625
4	35	65	n/a	n/a	n/a	f	5	0.03000000000000001	1	f	1	0.5635043996298919
4	36	85	n/a	n/a	n/a	f	5	0.02000000000000001	1	f	1	0.5522005560560501
4	37	85	n/a	n/a	n/a	j	5	0.01000000000000001	0	j	1	0.53981419604861
4	38	65	n/a	n/a	n/a	f	5	0.02000000000000001	0	f	1	0.5426677401537745
4	39	65	n/a	n/a	n/a	f	5	0.03000000000000001	0	f	1	0.5796993814528832
4	40	65	n/a	n/a	n/a	f	5	0.04000000000000001	1	f	1	0.6026985079115548
4	41	85	n/a	n/a	n/a	j	5	0.03000000000000001	1	j	1	0.5279897638483817
4	42	85	n/a	n/a	n/a	f	5	0.02000000000000001	0	f	1	0.5402053502584749
4	43	65	n/a	n/a	n/a	f	5	0.03000000000000001	0	f	1	0.5907674491263606
4	44	65	n/a	n/a	n/a	f	5	0.04000000000000001	1	f	1	0.5624298659349733
4	45	85	n/a	n/a	n/a	j	5	0.03000000000000001	1	j	1	0.5425437226022041
4	46	85	n/a	n/a	n/a	f	5	0.02000000000000001	0	f	1	0.540356737205002
4	47	65	n/a	n/a	n/a	f	5	0.03000000000000001	0	f	1	0.5845198154402169
4	48	65	n/a	n/a	n/a	f	5	0.04000000000000001	1	f	1	0.5503311696320452
4	49	85	n/a	n/a	n/a	j	5	0.03000000000000001	0	j	1	0.5554874488534551
4	50	65	n/a	n/a	n/a	f	5	0.04000000000000001	1	f	1	0.5183446194059798
4	51	85	n/a	n/a	n/a	f	5	0.03000000000000001	0	f	1	0.5882155385152146
4	52	65	n/a	n/a	n/a	f	5	0.04000000000000001	1	f	1	0.5852967070059094
4	53	85	n/a	n/a	n/a	j	5	0.03000000000000001	1	j	1	0.54217366562807
4	54	85	n/a	n/a	n/a	f	5	0.02000000000000001	0	f	1	0.4913438599051005
4	55	65	n/a	n/a	n/a	f	5	0.03000000000000001	0	f	1	0.6008046030765399
4	56	65	n/a	n/a	n/a	f	5	0.04000000000000001	1	f	1	0.5482790355035831
4	57	85	n/a	n/a	n/a	j	5	0.03000000000000001	0	j	1	0.5779628506134031
4	58	65	n/a	n/a	n/a	f	5	0.04000000000000001	1	f	1	0.5602286256471416
4	59	85	n/a	n/a	n/a	f	5	0.03000000000000001	1	f	1	0.5309296925970557
4	60	85	n/a	n/a	n/a	f	5	0.02000000000000001	0	f	1	0.5458716694865871
4	61	65	n/a	n/a	n/a	j	5	0.03000000000000001	0	j	1	0.5644825702602247
4	62	65	n/a	n/a	n/a	f	5	0.04000000000000001	1	f	1	0.5627859531177819
4	63	85	n/a	n/a	n/a	f	5	0.03000000000000001	1	f	1	0.5720125739535433
4	64	85	n/a	n/a	n/a	f	5	0.02000000000000001	1	f	1	0.5612364464486745
4	65	85	n/a	n/a	n/a	j	5	0.01000000000000001	0	j	1	0.550153268588474
4	66	65	n/a	n/a	n/a	f	5	0.02000000000000001	0	f	1	0.5080836636661843
4	67	65	n/a	n/a	n/a	f	5	0.03000000000000001	0	f	1	0.6019763551266806
4	68	65	n/a	n/a	n/a	f	5	0.04000000000000001	1	f	1	0.5467415029434051
4	69	85	n/a	n/a	n/a	j	5	0.03000000000000001	0	j	1	0.5685004538754583
4	70	65	n/a	n/a	n/a	f	5	0.04000000000000001	1	f	1	0.4436954607863299
4	71	85	n/a	n/a	n/a	f	5	0.03000000000000001	0	f	1	0.6144793201438006
5	0	69	f	1	0.778772927566024	f	9	0.1	0	f	1	0.8240584359300556
5	1	69	n/a	n/a	n/a	j	9	0.11	0	j	1	0.8059478818377102
5	2	69	n/a	n/a	n/a	f	9	0.12	0	f	1	0.8201882329867658
5	3	69	n/a	n/a	n/a	f	9	0.13	0	f	1	0.8594310929966014
5	4	69	n/a	n/a	n/a	f	9	0.14	1	f	1	0.7450062265361339
5	5	89	n/a	n/a	n/a	j	9	0.13	0	j	1	0.7392141791679023
5	6	69	n/a	n/a	n/a	f	9	0.14	0	f	1	0.7028433946252335
5	7	69	n/a	n/a	n/a	f	9	0.15	0	f	1	0.714500474403394
5	8	69	n/a	n/a	n/a	f	9	0.16	0	f	1	0.8428900024173345
5	9	69	n/a	n/a	n/a	j	9	0.17	1	j	1	0.8723172294867254
5	10	89	n/a	n/a	n/a	f	9	0.16	1	f	1	0.7412945379819575
5	11	89	n/a	n/a	n/a	f	9	0.15	0	f	1	0.769550298096874
5	12	69	n/a	n/a	n/a	f	9	0.16	0	f	1	0.7665718811440456
5	13	69	n/a	n/a	n/a	j	9	0.17	0	j	1	0.7883311171717651
5	14	69	n/a	n/a	n/a	f	9	0.18	0	f	1	0.8567195276045823
5	15	69	n/a	n/a	n/a	f	9	0.1900000000000001	1	f	1	0.8931367830919044
5	16	89	n/a	n/a	n/a	f	9	0.18	1	f	1	0.7382382893210888
5	17	89	n/a	n/a	n/a	j	9	0.17	0	j	1	0.7170908732205135
5	18	69	n/a	n/a	n/a	f	9	0.18	0	f	1	0.8578966965160362
5	19	69	n/a	n/a	n/a	f	9	0.1900000000000001	1	f	1	0.8788801813680038
5	20	89	n/a	n/a	n/a	f	9	0.18	1	f	1	0.8143790797494148
5	21	89	n/a	n/a	n/a	j	9	0.17	0	j	1	0.8440671713269694
5	22	69	n/a	n/a	n/a	f	9	0.18	1	f	1	0.9219022981160379
5	23	89	n/a	n/a	n/a	f	9	0.17	1	f	1	0.7661419536270841
5	24	89	n/a	n/a	n/a	f	9	0.16	0	f	1	0.8922695155160909
5	25	69	n/a	n/a	n/a	j	9	0.17	1	j	1	0.9309433202706714
5	26	89	n/a	n/a	n/a	f	9	0.16	1	f	1	0.8319448119036679
5	27	89	n/a	n/a	n/a	f	9	0.15	0	f	1	0.9080625094084098
5	28	69	n/a	n/a	n/a	f	9	0.16	1	f	1	1.10068628748013
5	29	89	n/a	n/a	n/a	j	9	0.15	1	j	1	0.746770696961903
5	30	89	n/a	n/a	n/a	f	9	0.14	0	f	1	0.8428044730699185
5	31	69	n/a	n/a	n/a	f	9	0.15	1	f	1	0.9229101189212088
5	32	89	n/a	n/a	n/a	f	9	0.14	1	f	1	0.8154635918690474
5	33	89	n/a	n/a	n/a	j	9	0.13	0	j	1	0.8994970304211165
5	34	69	n/a	n/a	n/a	f	9	0.14	1	f	1	0.7453181235541706
5	35	89	n/a	n/a	n/a	f	9	0.13	0	f	1	0.9180232571397937
5	36	69	n/a	n/a	n/a	f	9	0.14	1	f	1	0.9195342755992897
5	37	89	n/a	n/a	n/a	j	9	0.13	1	j	1	0.8784488283617975
5	38	89	n/a	n/a	n/a	f	9	0.12	1	f	1	0.8794811675779783
5	39	89	n/a	n/a	n/a	f	9	0.11	1	f	1	0.9094229962174722
5	40	89	n/a	n/a	n/a	f	9	0.1	1	f	1	0.8350999895083078
5	41	89	n/a	n/a	n/a	j	9	0.09000000000000002	0	j	1	0.8884514854744339
5	42	69	n/a	n/a	n/a	f	9	0.1	0	f	1	0.9272829493256722
5	43	69	n/a	n/a	n/a	f	9	0.11	1	f	1	0.9479217509106093
5	44	89	n/a	n/a	n/a	f	9	0.1	1	f	1	0.911512478161967
5	45	89	n/a	n/a	n/a	j	9	0.09000000000000002	1	j	1	0.8587785040817835
5	46	89	n/a	n/a	n/a	f	9	0.08000000000000003	0	f	1	0.8329477860443149
5	47	69	n/a	n/a	n/a	f	9	0.09000000000000002	0	f	1	0.9659285293964786
5	48	69	n/a	n/a	n/a	f	9	0.1	1	f	1	0.988542773795416
5	49	89	n/a	n/a	n/a	j	9	0.09000000000000002	1	j	1	0.7449654575466411
5	50	89	n/a	n/a	n/a	f	9	0.08000000000000003	0	f	1	0.8777911076849705
5	51	69	n/a	n/a	n/a	f	9	0.09000000000000002	0	f	1	1.052496202497423
5	52	69	n/a	n/a	n/a	f	9	0.1	1	f	1	0.8795886494572187
5	53	89	n/a	n/a	n/a	j	9	0.09000000000000002	0	j	1	0.6992637063631264
5	54	69	n/a	n/a	n/a	f	9	0.1	0	f	1	0.9264279409544542
5	55	69	n/a	n/a	n/a	f	9	0.11	1	f	1	0.9420538675221906
5	56	89	n/a	n/a	n/a	f	9	0.1	1	f	1	0.7993085237412743
5	57	89	n/a	n/a	n/a	j	9	0.09000000000000002	0	j	1	0.9642584263510798
5	58	69	n/a	n/a	n/a	f	9	0.1	1	f	1	0.7622771675414697
5	59	89	n/a	n/a	n/a	f	9	0.09000000000000002	0	f	1	0.9572384626608255
5	60	69	n/a	n/a	n/a	f	9	0.1	1	f	1	0.9133895622253476
5	61	89	n/a	n/a	n/a	j	9	0.09000000000000002	1	j	1	0.9571566395861737
5	62	89	n/a	n/a	n/a	f	9	0.08000000000000003	1	f	1	0.8499963507474604
5	63	89	n/a	n/a	n/a	f	9	0.07000000000000003	0	f	1	0.9658087883126427
5	64	69	n/a	n/a	n/a	f	9	0.08000000000000003	1	f	1	0.9220542552557163
5	65	89	n/a	n/a	n/a	j	9	0.07000000000000003	1	j	1	0.8303724974102806
5	66	89	n/a	n/a	n/a	f	9	0.06000000000000003	0	f	1	0.8737427186024433
5	67	69	n/a	n/a	n/a	f	9	0.07000000000000003	0	f	1	0.8984475853358163
5	68	69	n/a	n/a	n/a	f	9	0.08000000000000003	0	f	1	1.027458911701615
5	69	69	n/a	n/a	n/a	j	9	0.09000000000000002	1	j	1	0.9128435998954956
5	70	89	n/a	n/a	n/a	f	9	0.08000000000000003	1	f	1	0.9527088284539786
5	71	89	n/a	n/a	n/a	f	9	0.07000000000000003	1	f	1	1.029466570569639
6	0	92	j	1	0.0128479333834548	j	12	0.1	1	f	0	1.006223400374438
6	1	132	n/a	n/a	n/a	j	12	0.09000000000000001	1	j	1	0.8829930025585782
6	2	92	n/a	n/a	n/a	f	12	0.08000000000000002	0	f	1	0.8880540591089812
6	3	72	n/a	n/a	n/a	j	12	0.09000000000000001	0	j	1	0.8637694265653408
6	4	72	n/a	n/a	n/a	j	12	0.1	0	j	1	0.9070635266361933
6	5	72	n/a	n/a	n/a	j	12	0.11	1	j	1	2.42720568781624
6	6	92	n/a	n/a	n/a	j	12	0.1	2	j	1	0.7594355975434155
6	7	112	n/a	n/a	n/a	j	12	0.11	0	j	1	0.8427431770396652
6	8	72	n/a	n/a	n/a	f	12	0.12	0	f	1	0.8032864936612896
6	9	72	n/a	n/a	n/a	j	12	0.13	0	j	1	0.8713781172591553
6	10	72	n/a	n/a	n/a	j	12	0.14	1	j	1	0.875897773043107
6	11	92	n/a	n/a	n/a	j	12	0.13	1	j	1	0.980239299708046
6	12	92	n/a	n/a	n/a	j	12	0.12	1	j	1	0.8685770311512897
6	13	92	n/a	n/a	n/a	j	12	0.11	0	j	1	0.802547235007296
6	14	72	n/a	n/a	n/a	f	12	0.12	0	f	1	0.8704891822490026
6	15	72	n/a	n/a	n/a	j	12	0.13	1	j	1	0.9503467929916951
6	16	92	n/a	n/a	n/a	j	12	0.12	1	j	1	0.9782769713947346
6	17	92	n/a	n/a	n/a	j	12	0.11	1	j	1	0.9683464440313401
6	18	92	n/a	n/a	n/a	j	12	0.1	1	j	1	0.9972305597493687
6	19	92	n/a	n/a	n/a	j	12	0.09000000000000002	1	j	1	0.9067633186296007
6	20	92	n/a	n/a	n/a	f	12	0.08000000000000003	1	f	1	0.9291623141725722
6	21	92	n/a	n/a	n/a	j	12	0.07000000000000003	1	j	1	0.9006342856355332
6	22	92	n/a	n/a	n/a	j	12	0.06000000000000003	0	j	1	0.9006305793645879
6	23	72	n/a	n/a	n/a	j	12	0.07000000000000003	0	j	1	0.946688132633426
6	24	72	n/a	n/a	n/a	j	12	0.08000000000000003	1	j	1	1.04577302564212
6	25	92	n/a	n/a	n/a	j	12	0.07000000000000003	1	j	1	0.9226740579215402
6	26	92	n/a	n/a	n/a	f	12	0.06000000000000003	0	f	1	0.8897335703841236
6	27	72	n/a	n/a	n/a	j	12	0.07000000000000003	0	j	1	0.8683284258495405
6	28	72	n/a	n/a	n/a	j	12	0.08000000000000003	0	j	1	0.9206401700557763
6	29	72	n/a	n/a	n/a	j	12	0.09000000000000002	1	j	1	0.9433168508785457
6	30	92	n/a	n/a	n/a	j	12	0.08000000000000003	1	j	1	0.9635342778801714
6	31	92	n/a	n/a	n/a	j	12	0.07000000000000003	1	j	1	0.9283666061510303
6	32	92	n/a	n/a	n/a	f	12	0.06000000000000003	0	f	1	0.8452825433469116
6	33	72	n/a	n/a	n/a	j	12	0.07000000000000003	0	j	1	0.8930717807888868
6	34	72	n/a	n/a	n/a	j	12	0.08000000000000003	0	j	1	0.9092907108297368
6	35	72	n/a	n/a	n/a	j	12	0.09000000000000002	1	j	1	1.043375352952353
6	36	92	n/a	n/a	n/a	j	12	0.08000000000000003	1	j	1	0.9992450609643129
6	37	92	n/a	n/a	n/a	j	12	0.07000000000000003	1	j	1	0.8985815813139197
6	38	92	n/a	n/a	n/a	f	12	0.06000000000000003	0	f	1	1.040242983173812
6	39	72	n/a	n/a	n/a	j	12	0.07000000000000003	1	j	1	0.9177467122517555
6	40	92	n/a	n/a	n/a	j	12	0.06000000000000003	0	j	1	0.9457761046978703
6	41	72	n/a	n/a	n/a	j	12	0.07000000000000003	1	j	1	1.000083533663201
6	42	92	n/a	n/a	n/a	j	12	0.06000000000000003	1	j	1	0.9966512409737334
6	43	92	n/a	n/a	n/a	j	12	0.05000000000000003	1	j	1	0.9600991342140333
6	44	92	n/a	n/a	n/a	f	12	0.04000000000000003	1	f	1	1.035669443899678
6	45	92	n/a	n/a	n/a	j	12	0.03000000000000003	2	j	1	0.8478752229457314
6	46	112	n/a	n/a	n/a	j	12	0.04000000000000003	0	j	1	0.9104279660441534
6	47	72	n/a	n/a	n/a	j	12	0.05000000000000003	0	j	1	1.066135282339019
6	48	72	n/a	n/a	n/a	j	12	0.06000000000000003	2	j	1	1.071215725540242
6	49	112	n/a	n/a	n/a	j	12	0.07000000000000003	2	j	1	0.9071804167451774
6	50	112	n/a	n/a	n/a	f	12	0.08000000000000003	1	f	1	0.8185608946150751
6	51	92	n/a	n/a	n/a	j	12	0.07000000000000003	0	j	1	0.9274448848900647
6	52	72	n/a	n/a	n/a	j	12	0.08000000000000003	1	j	1	0.9660742143842072
6	53	92	n/a	n/a	n/a	j	12	0.07000000000000003	1	j	1	0.867119040884063
6	54	92	n/a	n/a	n/a	j	12	0.06000000000000003	0	j	1	0.9133499336294335
6	55	72	n/a	n/a	n/a	j	12	0.07000000000000003	0	j	1	1.004884580997896
6	56	72	n/a	n/a	n/a	f	12	0.08000000000000003	1	f	1	0.9099812177555577
6	57	92	n/a	n/a	n/a	j	12	0.07000000000000003	0	j	1	0.8330076565871423
6	58	72	n/a	n/a	n/a	j	12	0.08000000000000003	0	j	1	1.0000937971854
6	59	72	n/a	n/a	n/a	j	12	0.09000000000000002	1	j	1	2.219885972275733
6	60	92	n/a	n/a	n/a	j	12	0.08000000000000003	2	j	1	0.8906145226555964
6	61	112	n/a	n/a	n/a	j	12	0.09000000000000002	0	j	1	0.9517765585733287
6	62	72	n/a	n/a	n/a	f	12	0.1	1	f	1	0.8227344416427513
6	63	92	n/a	n/a	n/a	j	12	0.09000000000000002	0	j	1	0.8365137896125816
6	64	72	n/a	n/a	n/a	j	12	0.1	0	j	1	0.927542388342772
6	65	72	n/a	n/a	n/a	j	12	0.11	1	j	1	1.059162359790207
6	66	92	n/a	n/a	n/a	j	12	0.1	1	j	1	0.9152030694767745
6	67	92	n/a	n/a	n/a	j	12	0.09000000000000002	1	j	1	0.9764098657524301
6	68	92	n/a	n/a	n/a	f	12	0.08000000000000003	1	f	1	0.9570654082835972
6	69	92	n/a	n/a	n/a	j	12	0.07000000000000003	1	j	1	0.9409773381448758
6	70	92	n/a	n/a	n/a	j	12	0.06000000000000003	1	j	1	0.869310872945789
6	71	92	n/a	n/a	n/a	j	12	0.05000000000000003	0	j	1	0.9242956943398895
7	0	61	f	1	0.05490584929430042	f	1	0.1	2	f	1	0.4162362639872299
7	1	101	n/a	n/a	n/a	j	1	0.11	1	j	1	0.4363025891452708
7	2	81	n/a	n/a	n/a	f	1	0.1	1	f	1	0.3871745323249343
7	3	81	n/a	n/a	n/a	f	1	0.09000000000000001	1	f	1	0.4244336816864234
7	4	81	n/a	n/a	n/a	f	1	0.08000000000000002	1	f	1	0.3761341191384417
7	5	81	n/a	n/a	n/a	j	1	0.07000000000000002	1	j	1	0.372158715099431
7	6	81	n/a	n/a	n/a	f	1	0.06000000000000002	1	f	1	0.4200862249854254
7	7	81	n/a	n/a	n/a	f	1	0.05000000000000002	1	f	1	0.4140033778385259
7	8	81	n/a	n/a	n/a	f	1	0.04000000000000001	1	f	1	0.3854046450414899
7	9	81	n/a	n/a	n/a	j	1	0.03000000000000001	1	j	1	0.382019393495284
7	10	81	n/a	n/a	n/a	f	1	0.02000000000000001	1	f	1	0.4001530405112135
7	11	81	n/a	n/a	n/a	f	1	0.01000000000000001	2	f	1	0.4243222084351146
7	12	101	n/a	n/a	n/a	f	1	0.02000000000000001	2	f	1	0.4209782960733719
7	13	101	n/a	n/a	n/a	j	1	0.03000000000000001	2	j	1	0.3870011928502208
7	14	101	n/a	n/a	n/a	f	1	0.04000000000000001	1	f	1	0.4000466990237328
7	15	81	n/a	n/a	n/a	f	1	0.03000000000000001	1	f	1	0.4348702576826327
7	16	81	n/a	n/a	n/a	f	1	0.02000000000000001	2	f	1	0.3776502693599468
7	17	101	n/a	n/a	n/a	j	1	0.03000000000000001	1	j	1	0.3899357047375815
7	18	81	n/a	n/a	n/a	f	1	0.02000000000000001	1	f	1	0.422175421830616
7	19	81	n/a	n/a	n/a	f	1	0.01000000000000001	1	j	0	0.3828062634856906
7	20	121	n/a	n/a	n/a	f	1	0.02000000000000001	1	f	1	0.4336340735244448
7	21	81	n/a	n/a	n/a	j	1	0.01000000000000001	2	j	1	0.5018787946519296
7	22	101	n/a	n/a	n/a	f	1	0.02000000000000001	2	f	1	0.400749180058483
7	23	101	n/a	n/a	n/a	f	1	0.03000000000000001	1	f	1	0.4079176797149557
7	24	81	n/a	n/a	n/a	f	1	0.02000000000000001	2	f	1	0.4049116082696855
7	25	101	n/a	n/a	n/a	j	1	0.03000000000000001	1	j	1	0.3838243478094228
7	26	81	n/a	n/a	n/a	f	1	0.02000000000000001	1	f	1	0.4365563262072101
7	27	81	n/a	n/a	n/a	f	1	0.01000000000000001	2	f	1	0.3922803492332605
7	28	101	n/a	n/a	n/a	f	1	0.02000000000000001	1	f	1	0.4546121415187372
7	29	81	n/a	n/a	n/a	j	1	0.01000000000000001	2	j	1	0.3456309328867064
7	30	101	n/a	n/a	n/a	f	1	0.02000000000000001	0	f	1	0.3926244623053208
7	31	61	n/a	n/a	n/a	f	1	0.03000000000000001	1	f	1	0.3964313735323231
7	32	81	n/a	n/a	n/a	f	1	0.02000000000000001	1	f	1	0.3509873507809971
7	33	81	n/a	n/a	n/a	j	1	0.01000000000000001	0	j	1	0.3723637004331977
7	34	61	n/a	n/a	n/a	f	1	0.02000000000000001	1	f	1	0.3924149154063343
7	35	81	n/a	n/a	n/a	f	1	0.01000000000000001	1	f	1	0.3870431022296543
7	36	81	n/a	n/a	n/a	f	1	1.040834085586084e-17	0	f	1	0.3835418158687389
7	37	61	n/a	n/a	n/a	j	1	0.01000000000000001	1	j	1	0.3474892004942376
7	38	81	n/a	n/a	n/a	f	1	1.040834085586084e-17	0	f	1	0.4470576194107707
7	39	61	n/a	n/a	n/a	f	1	0.01000000000000001	2	f	1	0.411103077687585
7	40	101	n/a	n/a	n/a	f	1	0.02000000000000001	2	f	1	0.3580882822516287
7	41	101	n/a	n/a	n/a	j	1	0.03000000000000001	1	j	1	0.3614130930618558
7	42	81	n/a	n/a	n/a	f	1	0.02000000000000001	0	f	1	0.2783150604627735
7	43	61	n/a	n/a	n/a	f	1	0.03000000000000001	0	f	1	0.4512425703505869
7	44	61	n/a	n/a	n/a	f	1	0.04000000000000001	2	f	1	0.5851458902579907
7	45	101	n/a	n/a	n/a	j	1	0.05000000000000002	2	j	1	0.4241674003169464
7	46	101	n/a	n/a	n/a	f	1	0.06000000000000002	1	f	1	0.4131620541647862
7	47	81	n/a	n/a	n/a	f	1	0.05000000000000002	1	f	1	0.4152546721834369
7	48	81	n/a	n/a	n/a	f	1	0.04000000000000001	1	f	1	0.4222466962855833
7	49	81	n/a	n/a	n/a	j	1	0.03000000000000001	2	j	1	0.437182686122469
7	50	101	n/a	n/a	n/a	f	1	0.04000000000000001	2	f	1	0.4094985471419932
7	51	101	n/a	n/a	n/a	f	1	0.05000000000000002	1	f	1	0.4039593815432454
7	52	81	n/a	n/a	n/a	f	1	0.04000000000000001	1	f	1	0.3761700414652296
7	53	81	n/a	n/a	n/a	j	1	0.03000000000000001	1	j	1	0.4829597031330195
7	54	81	n/a	n/a	n/a	f	1	0.02000000000000001	2	f	1	0.4078295844883542
7	55	101	n/a	n/a	n/a	f	1	0.03000000000000001	1	f	1	0.4108091418329423
7	56	81	n/a	n/a	n/a	f	1	0.02000000000000001	2	f	1	0.4158157446981932
7	57	101	n/a	n/a	n/a	j	1	0.03000000000000001	1	j	1	0.3876007535691315
7	58	81	n/a	n/a	n/a	f	1	0.02000000000000001	1	f	1	0.4320383810099884
7	59	81	n/a	n/a	n/a	f	1	0.01000000000000001	2	f	1	0.3930290161169978
7	60	101	n/a	n/a	n/a	f	1	0.02000000000000001	1	f	1	0.4353543537854421
7	61	81	n/a	n/a	n/a	j	1	0.01000000000000001	1	f	0	0.4070256086270092
7	62	121	n/a	n/a	n/a	f	1	0.02000000000000001	1	j	0	0.1384788548639335
7	63	121	n/a	n/a	n/a	f	1	0.03000000000000001	0	f	1	0.3257219817260193
7	64	61	n/a	n/a	n/a	f	1	0.04000000000000001	0	f	1	0.4736022223951295
7	65	61	n/a	n/a	n/a	j	1	0.05000000000000002	2	j	1	0.421846704042764
7	66	101	n/a	n/a	n/a	f	1	0.06000000000000002	1	f	1	0.4183174780919217
7	67	81	n/a	n/a	n/a	f	1	0.05000000000000002	1	f	1	0.3923467770273419
7	68	81	n/a	n/a	n/a	f	1	0.04000000000000001	1	f	1	0.4115885992814583
7	69	81	n/a	n/a	n/a	j	1	0.03000000000000001	1	j	1	0.392307433525275
7	70	81	n/a	n/a	n/a	f	1	0.02000000000000001	1	f	1	0.4276190796572337
7	71	81	n/a	n/a	n/a	f	1	0.01000000000000001	2	f	1	0.3998516921128612
8	0	107	f	1	0.5299355564875441	f	7	0.1	0	f	1	0.587709774978066
8	1	67	n/a	n/a	n/a	f	7	0.11	1	f	1	0.6707388139020622
8	2	87	n/a	n/a	n/a	j	7	0.1	1	j	1	0.6125112898735097
8	3	87	n/a	n/a	n/a	f	7	0.09000000000000001	1	f	1	0.6493579026828229
8	4	87	n/a	n/a	n/a	f	7	0.08000000000000002	1	f	1	0.6574509745787509
8	5	87	n/a	n/a	n/a	f	7	0.07000000000000002	1	f	1	0.5960086875020352
8	6	87	n/a	n/a	n/a	f	7	0.06000000000000002	1	f	1	0.6824400838413567
8	7	87	n/a	n/a	n/a	f	7	0.05000000000000002	2	f	1	0.6168176924875297
8	8	107	n/a	n/a	n/a	j	7	0.06000000000000002	1	j	1	0.6358947281987639
8	9	87	n/a	n/a	n/a	f	7	0.05000000000000002	2	f	1	0.6322657180116948
8	10	107	n/a	n/a	n/a	f	7	0.06000000000000002	1	f	1	0.644689996031957
8	11	87	n/a	n/a	n/a	f	7	0.05000000000000002	2	f	1	0.6309092225728818
8	12	107	n/a	n/a	n/a	f	7	0.06000000000000002	1	f	1	0.6189758830041683
8	13	87	n/a	n/a	n/a	f	7	0.05000000000000002	1	f	1	0.6549509517699335
8	14	87	n/a	n/a	n/a	j	7	0.04000000000000001	2	j	1	0.6031811785269383
8	15	107	n/a	n/a	n/a	f	7	0.05000000000000002	1	f	1	0.6010517828890443
8	16	87	n/a	n/a	n/a	f	7	0.04000000000000001	1	f	1	0.5822236375734064
8	17	87	n/a	n/a	n/a	f	7	0.03000000000000001	1	f	1	0.6189995461245417
8	18	87	n/a	n/a	n/a	f	7	0.02000000000000001	2	f	1	0.6469938715381431
8	19	107	n/a	n/a	n/a	f	7	0.03000000000000001	2	f	1	0.647572335019504
8	20	107	n/a	n/a	n/a	j	7	0.04000000000000001	2	j	1	0.6054459956303617
8	21	107	n/a	n/a	n/a	f	7	0.05000000000000002	1	f	1	0.608208878629739
8	22	87	n/a	n/a	n/a	f	7	0.04000000000000001	1	f	1	0.597386280180217
8	23	87	n/a	n/a	n/a	f	7	0.03000000000000001	1	f	1	0.6424762114365876
8	24	87	n/a	n/a	n/a	f	7	0.02000000000000001	2	f	1	0.6304658954577462
8	25	107	n/a	n/a	n/a	f	7	0.03000000000000001	2	f	1	0.6442104614925483
8	26	107	n/a	n/a	n/a	j	7	0.04000000000000001	2	j	1	0.6264445906672336
8	27	107	n/a	n/a	n/a	f	7	0.05000000000000002	1	f	1	0.6052438612732658
8	28	87	n/a	n/a	n/a	f	7	0.04000000000000001	1	f	1	0.6246749884830933
8	29	87	n/a	n/a	n/a	f	7	0.03000000000000001	2	f	1	0.6285223836002842
8	30	107	n/a	n/a	n/a	f	7	0.04000000000000001	2	j	0	0.604321854914815
8	31	127	n/a	n/a	n/a	f	7	0.05000000000000002	1	f	1	0.6873976498809498
8	32	87	n/a	n/a	n/a	j	7	0.04000000000000001	2	j	1	0.6004334057088272
8	33	107	n/a	n/a	n/a	f	7	0.05000000000000002	1	f	1	0.6124431514945172
8	34	87	n/a	n/a	n/a	f	7	0.04000000000000001	1	f	1	0.630088996136692
8	35	87	n/a	n/a	n/a	f	7	0.03000000000000001	2	f	1	0.5761903974489542
8	36	107	n/a	n/a	n/a	f	7	0.04000000000000001	1	f	1	0.6743752366310218
8	37	87	n/a	n/a	n/a	f	7	0.03000000000000001	2	f	1	0.6022970901776716
8	38	107	n/a	n/a	n/a	j	7	0.04000000000000001	1	j	1	0.5674461621256341
8	39	87	n/a	n/a	n/a	f	7	0.03000000000000001	1	f	1	0.5710780232911929
8	40	87	n/a	n/a	n/a	f	7	0.02000000000000001	1	f	1	0.6084050259323703
8	41	87	n/a	n/a	n/a	f	7	0.01000000000000001	2	f	1	0.5763885404358007
8	42	107	n/a	n/a	n/a	f	7	0.02000000000000001	1	f	1	0.5983134183006769
8	43	87	n/a	n/a	n/a	f	7	0.01000000000000001	2	f	1	0.6360712037530902
8	44	107	n/a	n/a	n/a	j	7	0.02000000000000001	2	j	1	0.5289513988045655
8	45	107	n/a	n/a	n/a	f	7	0.03000000000000001	0	f	1	0.5751130127773649
8	46	67	n/a	n/a	n/a	f	7	0.04000000000000001	1	f	1	0.5784232835976582
8	47	87	n/a	n/a	n/a	f	7	0.03000000000000001	1	f	1	0.4538820059933641
8	48	87	n/a	n/a	n/a	f	7	0.02000000000000001	0	f	1	0.5685375165921869
8	49	67	n/a	n/a	n/a	f	7	0.03000000000000001	1	f	1	0.6588821656478103
8	50	87	n/a	n/a	n/a	j	7	0.02000000000000001	2	j	1	0.544306197343758
8	51	107	n/a	n/a	n/a	f	7	0.03000000000000001	0	f	1	0.5221509604380117
8	52	67	n/a	n/a	n/a	f	7	0.04000000000000001	0	f	1	0.5919340694181301
8	53	67	n/a	n/a	n/a	f	7	0.05000000000000002	1	f	1	0.4843378660079907
8	54	87	n/a	n/a	n/a	f	7	0.04000000000000001	0	f	1	0.5840992961511802
8	55	67	n/a	n/a	n/a	f	7	0.05000000000000002	1	f	1	0.5060888341995451
8	56	87	n/a	n/a	n/a	j	7	0.04000000000000001	0	j	1	0.6016864106422872
8	57	67	n/a	n/a	n/a	f	7	0.05000000000000002	1	f	1	0.652536458310351
8	58	87	n/a	n/a	n/a	f	7	0.04000000000000001	2	f	1	0.5601422410054511
8	59	107	n/a	n/a	n/a	f	7	0.05000000000000002	1	f	1	0.6199435050166358
8	60	87	n/a	n/a	n/a	f	7	0.04000000000000001	1	f	1	0.5585069198932615
8	61	87	n/a	n/a	n/a	f	7	0.03000000000000001	1	f	1	0.5705103935270017
8	62	87	n/a	n/a	n/a	j	7	0.02000000000000001	1	j	1	0.5729784853774618
8	63	87	n/a	n/a	n/a	f	7	0.01000000000000001	1	f	1	0.6165710828699957
8	64	87	n/a	n/a	n/a	f	7	1.040834085586084e-17	2	f	1	0.5479677086805168
8	65	107	n/a	n/a	n/a	f	7	0.01000000000000001	0	f	1	0.5822447348145943
8	66	67	n/a	n/a	n/a	f	7	0.02000000000000001	1	f	1	0.6430549600172526
8	67	87	n/a	n/a	n/a	f	7	0.01000000000000001	2	f	1	0.5670304895011213
8	68	107	n/a	n/a	n/a	j	7	0.02000000000000001	1	j	1	0.5731084899853158
8	69	87	n/a	n/a	n/a	f	7	0.01000000000000001	1	f	1	0.5601901374393492
8	70	87	n/a	n/a	n/a	f	7	1.040834085586084e-17	0	f	1	0.4988185546208115
8	71	67	n/a	n/a	n/a	f	7	0.01000000000000001	0	f	1	0.5990985777043534
9	0	68	j	1	0.01080036082021252	j	8	0.1	1	j	1	0.6283804048835009
9	1	88	n/a	n/a	n/a	j	8	0.09000000000000001	1	j	1	0.6568334526946273
9	2	88	n/a	n/a	n/a	f	8	0.08000000000000002	1	f	1	0.572127183279008
9	3	88	n/a	n/a	n/a	j	8	0.07000000000000002	1	j	1	0.6734289969572274
9	4	88	n/a	n/a	n/a	j	8	0.06000000000000002	2	j	1	0.6681159139316151
9	5	108	n/a	n/a	n/a	j	8	0.07000000000000002	2	j	1	0.6169203277022461
9	6	108	n/a	n/a	n/a	j	8	0.08000000000000002	1	j	1	0.6359466160029115
9	7	88	n/a	n/a	n/a	j	8	0.07000000000000002	1	j	1	0.6413452283759398
9	8	88	n/a	n/a	n/a	f	8	0.06000000000000002	1	f	1	0.6037220090947812
9	9	88	n/a	n/a	n/a	j	8	0.05000000000000002	1	j	1	0.6661099656503211
9	10	88	n/a	n/a	n/a	j	8	0.04000000000000001	2	j	1	0.6373031114435435
9	11	108	n/a	n/a	n/a	j	8	0.05000000000000002	2	j	1	0.6088061585687683
9	12	108	n/a	n/a	n/a	j	8	0.06000000000000002	1	j	1	0.6457887630404002
9	13	88	n/a	n/a	n/a	j	8	0.05000000000000002	2	j	1	0.6337473713992949
9	14	108	n/a	n/a	n/a	f	8	0.06000000000000002	1	f	1	0.599837836358347
9	15	88	n/a	n/a	n/a	j	8	0.05000000000000002	1	j	1	0.6436120411635784
9	16	88	n/a	n/a	n/a	j	8	0.04000000000000001	2	j	1	0.6392389256598108
9	17	108	n/a	n/a	n/a	j	8	0.05000000000000002	2	j	1	0.5873186207645631
9	18	108	n/a	n/a	n/a	j	8	0.06000000000000002	1	j	1	0.6556822276852472
9	19	88	n/a	n/a	n/a	j	8	0.05000000000000002	2	j	1	0.5686256118206074
9	20	108	n/a	n/a	n/a	f	8	0.06000000000000002	1	f	1	0.6136821866330138
9	21	88	n/a	n/a	n/a	j	8	0.05000000000000002	1	j	1	0.6274917549708334
9	22	88	n/a	n/a	n/a	j	8	0.04000000000000001	1	j	1	0.5905276818575658
9	23	88	n/a	n/a	n/a	j	8	0.03000000000000001	1	j	1	0.6274079362119664
9	24	88	n/a	n/a	n/a	j	8	0.02000000000000001	2	j	1	0.6407433868698718
9	25	108	n/a	n/a	n/a	j	8	0.03000000000000001	2	j	1	0.63027801599128
9	26	108	n/a	n/a	n/a	f	8	0.04000000000000001	2	f	1	0.568519555428793
9	27	108	n/a	n/a	n/a	j	8	0.05000000000000002	1	j	1	0.5974390232786391
9	28	88	n/a	n/a	n/a	j	8	0.04000000000000001	1	j	1	0.5947502657108998
9	29	88	n/a	n/a	n/a	j	8	0.03000000000000001	1	j	1	0.5840599526509322
9	30	88	n/a	n/a	n/a	j	8	0.02000000000000001	1	j	1	0.5560382578460121
9	31	88	n/a	n/a	n/a	j	8	0.01000000000000001	0	j	1	0.6014138571226795
9	32	68	n/a	n/a	n/a	f	8	0.02000000000000001	1	f	1	0.5580000159661722
9	33	88	n/a	n/a	n/a	j	8	0.01000000000000001	0	j	1	0.5715946205455111
9	34	68	n/a	n/a	n/a	j	8	0.02000000000000001	1	j	1	0.5779443192550389
9	35	88	n/a	n/a	n/a	j	8	0.01000000000000001	0	j	1	0.6377213499490608
9	36	68	n/a	n/a	n/a	j	8	0.02000000000000001	2	j	1	0.6349114258082409
9	37	108	n/a	n/a	n/a	j	8	0.03000000000000001	2	j	1	0.6466158318235102
9	38	108	n/a	n/a	n/a	f	8	0.04000000000000001	2	j	0	0.6204008019230969
9	39	128	n/a	n/a	n/a	j	8	0.05000000000000002	1	j	1	0.6169531139530591
9	40	88	n/a	n/a	n/a	j	8	0.04000000000000001	1	j	1	0.6136667913506244
9	41	88	n/a	n/a	n/a	j	8	0.03000000000000001	1	j	1	0.5622052088510827
9	42	88	n/a	n/a	n/a	j	8	0.02000000000000001	0	j	1	0.6088677396983257
9	43	68	n/a	n/a	n/a	j	8	0.03000000000000001	1	j	1	0.6044370344352501
9	44	88	n/a	n/a	n/a	f	8	0.02000000000000001	2	f	1	0.6077264931154787
9	45	108	n/a	n/a	n/a	j	8	0.03000000000000001	1	j	1	0.6294153099806863
9	46	88	n/a	n/a	n/a	j	8	0.02000000000000001	2	j	1	0.5764492662729026
9	47	108	n/a	n/a	n/a	j	8	0.03000000000000001	1	j	1	0.6135538926118898
9	48	88	n/a	n/a	n/a	j	8	0.02000000000000001	2	j	1	0.5853999124174152
9	49	108	n/a	n/a	n/a	j	8	0.03000000000000001	1	j	1	0.6153976202313061
9	50	88	n/a	n/a	n/a	f	8	0.02000000000000001	2	f	1	0.560748929172405
9	51	108	n/a	n/a	n/a	j	8	0.03000000000000001	1	j	1	0.6206157656815776
9	52	88	n/a	n/a	n/a	j	8	0.02000000000000001	2	j	1	0.6353875391723705
9	53	108	n/a	n/a	n/a	j	8	0.03000000000000001	2	j	1	0.5750585590922128
9	54	108	n/a	n/a	n/a	j	8	0.04000000000000001	1	j	1	0.5724989508398721
9	55	88	n/a	n/a	n/a	j	8	0.03000000000000001	1	j	1	0.5621832563192584
9	56	88	n/a	n/a	n/a	f	8	0.02000000000000001	0	f	1	0.5504044397712278
9	57	68	n/a	n/a	n/a	j	8	0.03000000000000001	0	j	1	0.6109341287192365
9	58	68	n/a	n/a	n/a	j	8	0.04000000000000001	1	j	1	0.6565178494056454
9	59	88	n/a	n/a	n/a	j	8	0.03000000000000001	2	j	1	0.5813914370301063
9	60	108	n/a	n/a	n/a	j	8	0.04000000000000001	1	j	1	0.6190827946884383
9	61	88	n/a	n/a	n/a	j	8	0.03000000000000001	1	j	1	0.5749818677777512
9	62	88	n/a	n/a	n/a	f	8	0.02000000000000001	1	f	1	0.5499713761782914
9	63	88	n/a	n/a	n/a	j	8	0.01000000000000001	0	j	1	0.5648557633085147
9	64	68	n/a	n/a	n/a	j	8	0.02000000000000001	1	j	1	0.5927705464309838
9	65	88	n/a	n/a	n/a	j	8	0.01000000000000001	1	j	1	0.5875184743381396
9	66	88	n/a	n/a	n/a	j	8	1.040834085586084e-17	2	j	1	0.6170078527338774
9	67	108	n/a	n/a	n/a	j	8	0.01000000000000001	2	j	1	0.6150574985294952
9	68	108	n/a	n/a	n/a	f	8	0.02000000000000001	2	f	1	0.6296584984229412
9	69	108	n/a	n/a	n/a	j	8	0.03000000000000001	2	j	1	0.5685338103212416
9	70	108	n/a	n/a	n/a	j	8	0.04000000000000001	1	j	1	0.4080696368528152
9	71	88	n/a	n/a	n/a	j	8	0.03000000000000001	0	j	1	0.5263524470519769
10	0	66	j	1	0.0694757735273015	j	6	0.1	1	j	1	0.5827562003069033
10	1	86	n/a	n/a	n/a	f	6	0.09000000000000001	1	f	1	0.6016447863603389
10	2	86	n/a	n/a	n/a	j	6	0.08000000000000002	1	j	1	0.6387203327212774
10	3	86	n/a	n/a	n/a	j	6	0.07000000000000002	1	j	1	0.6437822445641359
10	4	86	n/a	n/a	n/a	j	6	0.06000000000000002	2	j	1	0.58410556830313
10	5	106	n/a	n/a	n/a	f	6	0.07000000000000002	1	f	1	0.5874289536222932
10	6	86	n/a	n/a	n/a	j	6	0.06000000000000002	1	j	1	0.5837426387734013
10	7	86	n/a	n/a	n/a	j	6	0.05000000000000002	1	j	1	0.5730469088557584
10	8	86	n/a	n/a	n/a	j	6	0.04000000000000001	1	j	1	0.9623687979819806
10	9	86	n/a	n/a	n/a	f	6	0.03000000000000001	2	f	1	0.5126483649073634
10	10	106	n/a	n/a	n/a	j	6	0.04000000000000001	0	j	1	0.5082587137294468
10	11	66	n/a	n/a	n/a	j	6	0.05000000000000002	0	j	1	0.5703493132568838
10	12	66	n/a	n/a	n/a	j	6	0.06000000000000002	1	j	1	0.5686985968623048
10	13	86	n/a	n/a	n/a	f	6	0.05000000000000002	1	f	1	0.5583036451462249
10	14	86	n/a	n/a	n/a	j	6	0.04000000000000001	1	j	1	0.5224369135521556
10	15	86	n/a	n/a	n/a	j	6	0.03000000000000001	0	j	1	0.6061587401873112
10	16	66	n/a	n/a	n/a	j	6	0.04000000000000001	1	j	1	0.616913485355326
10	17	86	n/a	n/a	n/a	f	6	0.03000000000000001	2	f	1	0.6085284732889704
10	18	106	n/a	n/a	n/a	j	6	0.04000000000000001	1	j	1	0.5492860010126606
10	19	86	n/a	n/a	n/a	j	6	0.03000000000000001	0	j	1	0.5930773116888304
10	20	66	n/a	n/a	n/a	j	6	0.04000000000000001	1	j	1	0.5749473709420272
10	21	86	n/a	n/a	n/a	f	6	0.03000000000000001	1	f	1	0.5936335375390627
10	22	86	n/a	n/a	n/a	j	6	0.02000000000000001	1	j	1	0.5779463149392541
10	23	86	n/a	n/a	n/a	j	6	0.01000000000000001	0	j	1	0.5900544194719259
10	24	66	n/a	n/a	n/a	j	6	0.02000000000000001	1	j	1	0.5347819343769515
10	25	86	n/a	n/a	n/a	f	6	0.01000000000000001	0	f	1	0.6038237890188611
10	26	66	n/a	n/a	n/a	j	6	0.02000000000000001	1	j	1	0.6349644540023291
10	27	86	n/a	n/a	n/a	j	6	0.01000000000000001	2	j	1	0.5477573064872558
10	28	106	n/a	n/a	n/a	j	6	0.02000000000000001	0	j	1	0.5761345182763762
10	29	66	n/a	n/a	n/a	f	6	0.03000000000000001	0	j	0	0.5964696906812605
10	30	126	n/a	n/a	n/a	j	6	0.02000000000000001	0	f	0	0.06196601177907723
10	31	126	n/a	n/a	n/a	j	6	0.01000000000000001	0	j	1	0.5027038677526434
10	32	66	n/a	n/a	n/a	j	6	0.02000000000000001	0	j	1	0.5729283081600443
10	33	66	n/a	n/a	n/a	f	6	0.03000000000000001	1	f	1	0.5795884783983638
10	34	86	n/a	n/a	n/a	j	6	0.02000000000000001	1	j	1	0.5936161465724581
10	35	86	n/a	n/a	n/a	j	6	0.01000000000000001	1	j	1	0.5365586640091351
10	36	86	n/a	n/a	n/a	j	6	1.040834085586084e-17	0	j	1	0.8046033605060074
10	37	66	n/a	n/a	n/a	f	6	0.01000000000000001	2	f	1	0.5231302714582853
10	38	106	n/a	n/a	n/a	j	6	0.02000000000000001	0	j	1	0.5364930915111472
10	39	66	n/a	n/a	n/a	j	6	0.03000000000000001	0	j	1	0.6295681224146392
10	40	66	n/a	n/a	n/a	j	6	0.04000000000000001	2	j	1	0.6185770311512897
10	41	106	n/a	n/a	n/a	f	6	0.05000000000000002	1	f	1	0.670332264407989
10	42	86	n/a	n/a	n/a	j	6	0.04000000000000001	2	j	1	0.6102031379014079
10	43	106	n/a	n/a	n/a	j	6	0.05000000000000002	1	j	1	0.6020980918983696
10	44	86	n/a	n/a	n/a	j	6	0.04000000000000001	1	j	1	0.5519165986224834
10	45	86	n/a	n/a	n/a	f	6	0.03000000000000001	0	f	1	0.5888376219645579
10	46	66	n/a	n/a	n/a	j	6	0.04000000000000001	1	j	1	0.5552627917695645
10	47	86	n/a	n/a	n/a	j	6	0.03000000000000001	1	j	1	0.5759152780501609
10	48	86	n/a	n/a	n/a	j	6	0.02000000000000001	1	j	1	0.589993693634824
10	49	86	n/a	n/a	n/a	f	6	0.01000000000000001	1	f	1	0.5630029125586589
10	50	86	n/a	n/a	n/a	j	6	1.040834085586084e-17	0	j	1	0.6162355227334047
10	51	66	n/a	n/a	n/a	j	6	0.01000000000000001	2	j	1	0.5951679340214469
10	52	106	n/a	n/a	n/a	j	6	0.02000000000000001	1	j	1	0.5904618242620927
10	53	86	n/a	n/a	n/a	f	6	0.01000000000000001	1	f	1	0.5632572198173875
10	54	86	n/a	n/a	n/a	j	6	1.040834085586084e-17	1	f	0	0.5928757475267048
10	55	126	n/a	n/a	n/a	j	6	0.01000000000000001	1	j	1	0.5656018643112475
10	56	86	n/a	n/a	n/a	j	6	1.040834085586084e-17	0	j	1	0.5926134575311153
10	57	66	n/a	n/a	n/a	f	6	0.01000000000000001	1	f	1	0.5964038330839685
10	58	86	n/a	n/a	n/a	j	6	1.040834085586084e-17	2	j	1	0.5457228484247025
10	59	106	n/a	n/a	n/a	j	6	0.01000000000000001	0	j	1	0.5798618872122461
10	60	66	n/a	n/a	n/a	j	6	0.02000000000000001	1	j	1	0.5764592446957977
10	61	86	n/a	n/a	n/a	f	6	0.01000000000000001	0	f	1	0.6298096002701641
10	62	66	n/a	n/a	n/a	j	6	0.02000000000000001	2	j	1	0.5540479899464117
10	63	106	n/a	n/a	n/a	j	6	0.03000000000000001	1	j	1	0.5849001359347312
10	64	86	n/a	n/a	n/a	j	6	0.02000000000000001	1	j	1	0.5585106261660258
10	65	86	n/a	n/a	n/a	f	6	0.01000000000000001	0	f	1	0.6274424330476904
10	66	66	n/a	n/a	n/a	j	6	0.02000000000000001	2	j	1	0.5767383554648404
10	67	106	n/a	n/a	n/a	j	6	0.03000000000000001	1	j	1	0.5735084822317731
10	68	86	n/a	n/a	n/a	j	6	0.02000000000000001	1	j	1	0.6053732956843305
10	69	86	n/a	n/a	n/a	f	6	0.01000000000000001	2	f	1	0.7443353913604369
10	70	106	n/a	n/a	n/a	j	6	0.02000000000000001	2	j	1	0.515168344561971
10	71	106	n/a	n/a	n/a	j	6	0.03000000000000001	0	j	1	0.6342879168696527
11	0	63	f	1	0.08325683208386181	f	3	0.1	0	j	0	0.4838235495353729
11	1	123	n/a	n/a	n/a	f	3	0.11	0	j	0	0.423831269985385
11	2	123	n/a	n/a	n/a	j	3	0.1	1	j	1	0.8525268790235714
11	3	83	n/a	n/a	n/a	f	3	0.09000000000000001	2	f	1	0.4156820338193938
11	4	103	n/a	n/a	n/a	f	3	0.1	1	f	1	0.4196508806107886
11	5	83	n/a	n/a	n/a	f	3	0.09000000000000001	1	f	1	0.3743417091282026
11	6	83	n/a	n/a	n/a	f	3	0.08000000000000002	1	f	1	0.4256712913338561
11	7	83	n/a	n/a	n/a	f	3	0.07000000000000002	1	f	1	0.414634869515794
11	8	83	n/a	n/a	n/a	j	3	0.06000000000000002	1	j	1	0.4114853938681335
11	9	83	n/a	n/a	n/a	f	3	0.05000000000000002	1	f	1	0.4139566217963875
11	10	83	n/a	n/a	n/a	f	3	0.04000000000000001	1	f	1	0.3683746116967086
11	11	83	n/a	n/a	n/a	f	3	0.03000000000000001	1	f	1	0.3884429325389647
11	12	83	n/a	n/a	n/a	f	3	0.02000000000000001	1	j	0	0.4264886667915562
11	13	123	n/a	n/a	n/a	f	3	0.01000000000000001	2	f	1	0.008241037663538009
11	14	103	n/a	n/a	n/a	j	3	0.02000000000000001	2	f	0	0.4285604726683232
11	15	123	n/a	n/a	n/a	f	3	0.03000000000000001	2	j	0	0.391585565837886
11	16	123	n/a	n/a	n/a	f	3	0.04000000000000001	1	f	1	0.3991272585444676
11	17	83	n/a	n/a	n/a	f	3	0.03000000000000001	1	f	1	0.3621392372151604
11	18	83	n/a	n/a	n/a	f	3	0.02000000000000001	0	f	1	0.4099777965802787
11	19	63	n/a	n/a	n/a	f	3	0.03000000000000001	1	f	1	0.4205238501435815
11	20	83	n/a	n/a	n/a	j	3	0.02000000000000001	2	j	1	0.3744107027996506
11	21	103	n/a	n/a	n/a	f	3	0.03000000000000001	1	f	1	0.430373694822265
11	22	83	n/a	n/a	n/a	f	3	0.02000000000000001	2	f	1	0.4120296456112555
11	23	103	n/a	n/a	n/a	f	3	0.03000000000000001	1	f	1	0.3459930071203416
11	24	83	n/a	n/a	n/a	f	3	0.02000000000000001	0	f	1	0.4483867454600841
11	25	63	n/a	n/a	n/a	f	3	0.03000000000000001	2	f	1	0.4190393457793107
11	26	103	n/a	n/a	n/a	j	3	0.04000000000000001	1	j	1	0.3838551383760205
11	27	83	n/a	n/a	n/a	f	3	0.03000000000000001	1	f	1	0.3958141367456847
11	28	83	n/a	n/a	n/a	f	3	0.02000000000000001	1	f	1	0.4152158988799783
11	29	83	n/a	n/a	n/a	f	3	0.01000000000000001	2	f	1	0.3478535555113922
11	30	103	n/a	n/a	n/a	f	3	0.02000000000000001	0	f	1	0.3998864740478894
11	31	63	n/a	n/a	n/a	f	3	0.03000000000000001	1	f	1	0.3651316239611333
11	32	83	n/a	n/a	n/a	j	3	0.02000000000000001	0	j	1	0.3646503788368136
11	33	63	n/a	n/a	n/a	f	3	0.03000000000000001	1	f	1	0.3597783421446366
11	34	83	n/a	n/a	n/a	f	3	0.02000000000000001	0	f	1	0.3946036113902665
11	35	63	n/a	n/a	n/a	f	3	0.03000000000000001	1	f	1	0.34964710591521
11	36	83	n/a	n/a	n/a	f	3	0.02000000000000001	0	f	1	0.4012749004432408
11	37	63	n/a	n/a	n/a	f	3	0.03000000000000001	1	f	1	0.420454001177859
11	38	83	n/a	n/a	n/a	j	3	0.02000000000000001	1	f	0	0.3770133608250035
11	39	123	n/a	n/a	n/a	f	3	0.03000000000000001	1	f	1	0.4059208545641013
11	40	83	n/a	n/a	n/a	f	3	0.02000000000000001	1	f	1	0.3959350182230992
11	41	83	n/a	n/a	n/a	f	3	0.01000000000000001	1	f	1	0.3507598427167977
11	42	83	n/a	n/a	n/a	f	3	1.040834085586084e-17	0	f	1	0.4036779899925023
11	43	63	n/a	n/a	n/a	f	3	0.01000000000000001	2	f	1	0.3917936872512655
11	44	103	n/a	n/a	n/a	j	3	0.02000000000000001	1	j	1	0.3795886494572187
11	45	83	n/a	n/a	n/a	f	3	0.01000000000000001	1	f	1	0.3644696268183907
11	46	83	n/a	n/a	n/a	f	3	1.040834085586084e-17	0	f	1	0.4159112524685042
11	47	63	n/a	n/a	n/a	f	3	0.01000000000000001	2	f	1	0.3564404168373585
11	48	103	n/a	n/a	n/a	f	3	0.02000000000000001	0	f	1	0.3997117090821121
11	49	63	n/a	n/a	n/a	f	3	0.03000000000000001	1	f	1	0.4136572690822504
11	50	83	n/a	n/a	n/a	j	3	0.02000000000000001	2	j	1	0.3295819211489288
11	51	103	n/a	n/a	n/a	f	3	0.03000000000000001	0	f	1	0.4446596616235183
11	52	63	n/a	n/a	n/a	f	3	0.04000000000000001	2	f	1	0.4314878571130976
11	53	103	n/a	n/a	n/a	f	3	0.05000000000000002	1	f	1	0.3903445350169932
11	54	83	n/a	n/a	n/a	f	3	0.04000000000000001	1	f	1	0.4083515986003476
11	55	83	n/a	n/a	n/a	f	3	0.03000000000000001	1	f	1	0.4029267572295794
11	56	83	n/a	n/a	n/a	j	3	0.02000000000000001	2	j	1	0.3672262376676372
11	57	103	n/a	n/a	n/a	f	3	0.03000000000000001	1	f	1	0.4269798903405899
11	58	83	n/a	n/a	n/a	f	3	0.02000000000000001	2	f	1	0.4234917184785445
11	59	103	n/a	n/a	n/a	f	3	0.03000000000000001	2	f	1	0.3558183333861962
11	60	103	n/a	n/a	n/a	f	3	0.04000000000000001	1	f	1	0.4010975695964589
11	61	83	n/a	n/a	n/a	f	3	0.03000000000000001	1	f	1	0.3240712653332594
11	62	83	n/a	n/a	n/a	j	3	0.02000000000000001	0	j	1	0.2953428130258544
11	63	63	n/a	n/a	n/a	f	3	0.03000000000000001	0	f	1	0.4203308389169251
11	64	63	n/a	n/a	n/a	f	3	0.04000000000000001	1	f	1	0.4578203473174653
11	65	83	n/a	n/a	n/a	f	3	0.03000000000000001	2	f	1	0.4290408625020063
11	66	103	n/a	n/a	n/a	f	3	0.04000000000000001	2	f	1	0.3684236485223664
11	67	103	n/a	n/a	n/a	f	3	0.05000000000000002	1	f	1	0.4450029194031231
11	68	83	n/a	n/a	n/a	j	3	0.04000000000000001	2	j	1	0.370086909219026
11	69	103	n/a	n/a	n/a	f	3	0.05000000000000002	1	f	1	0.392996514965489
11	70	83	n/a	n/a	n/a	f	3	0.04000000000000001	1	f	1	0.4160178790552891
11	71	83	n/a	n/a	n/a	f	3	0.03000000000000001	2	f	1	0.3539580700944498
12	0	110	j	1	0.01981401358352741	j	10	0.08000000000000003	0	j	1	0.7876197981058795
12	1	70	n/a	n/a	n/a	f	10	0.09000000000000002	0	f	1	0.9197506648470153
12	2	70	n/a	n/a	n/a	j	10	0.1	1	j	1	0.9660522618523828
12	3	90	n/a	n/a	n/a	j	10	0.09000000000000002	1	j	1	0.9134776574537682
12	4	90	n/a	n/a	n/a	j	10	0.08000000000000003	1	j	1	0.8523760622738337
12	5	90	n/a	n/a	n/a	f	10	0.07000000000000003	0	f	1	0.9194735497658257
12	6	70	n/a	n/a	n/a	j	10	0.08000000000000003	1	j	1	0.9558340707862953
12	7	90	n/a	n/a	n/a	j	10	0.07000000000000003	1	j	1	0.8784129060350097
12	8	90	n/a	n/a	n/a	j	10	0.06000000000000003	0	j	1	0.8741886115967645
12	9	70	n/a	n/a	n/a	f	10	0.07000000000000003	0	f	1	0.9929004940186132
12	10	70	n/a	n/a	n/a	j	10	0.08000000000000003	1	j	1	0.9181672315407923
12	11	90	n/a	n/a	n/a	j	10	0.07000000000000003	1	j	1	0.9301513185200747
12	12	90	n/a	n/a	n/a	j	10	0.06000000000000003	1	j	1	0.9253294590434962
12	13	90	n/a	n/a	n/a	f	10	0.05000000000000003	0	f	1	0.9787756074874778
12	14	70	n/a	n/a	n/a	j	10	0.06000000000000003	1	j	1	1.007602418541865
12	15	90	n/a	n/a	n/a	j	10	0.05000000000000003	1	j	1	0.9648220647468406
12	16	90	n/a	n/a	n/a	j	10	0.04000000000000003	1	j	1	0.9456518020469957
12	17	90	n/a	n/a	n/a	f	10	0.03000000000000003	0	f	1	0.8378377838998858
12	18	70	n/a	n/a	n/a	j	10	0.04000000000000003	0	j	1	0.9704501808664645
12	19	70	n/a	n/a	n/a	j	10	0.05000000000000003	1	j	1	1.005222136818702
12	20	90	n/a	n/a	n/a	j	10	0.04000000000000003	1	j	1	0.8400837845474598
12	21	90	n/a	n/a	n/a	f	10	0.03000000000000003	0	f	1	0.8988649685470591
12	22	70	n/a	n/a	n/a	j	10	0.04000000000000003	0	j	1	0.9282257678260066
12	23	70	n/a	n/a	n/a	j	10	0.05000000000000003	0	j	1	1.029255313083922
12	24	70	n/a	n/a	n/a	j	10	0.06000000000000003	1	j	1	1.105466237575456
12	25	90	n/a	n/a	n/a	f	10	0.05000000000000003	2	f	1	0.9181960264195368
12	26	110	n/a	n/a	n/a	j	10	0.06000000000000003	0	j	1	0.9048788220225106
12	27	70	n/a	n/a	n/a	j	10	0.07000000000000003	0	j	1	0.9570654082835972
12	28	70	n/a	n/a	n/a	j	10	0.08000000000000003	1	j	1	0.8420843159692595
12	29	90	n/a	n/a	n/a	f	10	0.07000000000000003	0	f	1	0.8468990480014327
12	30	70	n/a	n/a	n/a	j	10	0.08000000000000003	0	j	1	0.8820550307227677
12	31	70	n/a	n/a	n/a	j	10	0.09000000000000002	0	j	1	1.00488885746563
12	32	70	n/a	n/a	n/a	j	10	0.1	1	j	1	0.7708192685076938
12	33	90	n/a	n/a	n/a	f	10	0.09000000000000002	0	f	1	0.8170980576851434
12	34	70	n/a	n/a	n/a	j	10	0.1	0	j	1	0.8854251720858883
12	35	70	n/a	n/a	n/a	j	10	0.11	1	j	1	0.90958863805281
12	36	90	n/a	n/a	n/a	j	10	0.1	1	j	1	0.8015431204748893
12	37	90	n/a	n/a	n/a	f	10	0.09000000000000002	0	f	1	0.7605990817573911
12	38	70	n/a	n/a	n/a	j	10	0.1	0	j	1	0.9255008028358134
12	39	70	n/a	n/a	n/a	j	10	0.11	1	j	1	0.9464027497124334
12	40	90	n/a	n/a	n/a	j	10	0.1	1	j	1	0.8486401404061326
12	41	90	n/a	n/a	n/a	f	10	0.09000000000000002	0	f	1	0.9175422971129592
12	42	70	n/a	n/a	n/a	j	10	0.1	1	j	1	1.076827020888231
12	43	90	n/a	n/a	n/a	j	10	0.09000000000000002	2	j	1	0.9918909626267123
12	44	110	n/a	n/a	n/a	j	10	0.1	1	j	1	0.9510809198836796
12	45	90	n/a	n/a	n/a	f	10	0.09000000000000002	1	f	1	0.7821692979305226
12	46	90	n/a	n/a	n/a	j	10	0.08000000000000003	0	j	1	0.9777521063024324
12	47	70	n/a	n/a	n/a	j	10	0.09000000000000002	1	j	1	0.8939307805285353
12	48	90	n/a	n/a	n/a	j	10	0.08000000000000003	0	j	1	0.7797716252389364
12	49	70	n/a	n/a	n/a	f	10	0.09000000000000002	0	f	1	0.8811358753428067
12	50	70	n/a	n/a	n/a	j	10	0.1	0	j	1	0.9411116192186455
12	51	70	n/a	n/a	n/a	j	10	0.11	1	j	1	0.9019865046084306
12	52	90	n/a	n/a	n/a	j	10	0.1	1	j	1	0.8347276517524733
12	53	90	n/a	n/a	n/a	f	10	0.09000000000000002	0	f	1	0.9040158309126127
12	54	70	n/a	n/a	n/a	j	10	0.1	1	j	1	0.9491131747108739
12	55	90	n/a	n/a	n/a	j	10	0.09000000000000002	1	j	1	1.033507262010971
12	56	90	n/a	n/a	n/a	j	10	0.08000000000000003	1	j	1	0.8797451681621169
12	57	90	n/a	n/a	n/a	f	10	0.07000000000000003	0	f	1	0.8666959557158407
12	58	70	n/a	n/a	n/a	j	10	0.08000000000000003	0	j	1	0.8387270040111616
12	59	70	n/a	n/a	n/a	j	10	0.09000000000000002	0	j	1	0.8433524310876237
12	60	70	n/a	n/a	n/a	j	10	0.1	0	j	1	1.071512512373374
12	61	70	n/a	n/a	n/a	f	10	0.11	1	f	1	0.9905219228821807
12	62	90	n/a	n/a	n/a	j	10	0.1	1	j	1	0.9632220957646496
12	63	90	n/a	n/a	n/a	j	10	0.09000000000000002	1	j	1	0.882441908466717
12	64	90	n/a	n/a	n/a	j	10	0.08000000000000003	0	j	1	1.020330610839665
12	65	70	n/a	n/a	n/a	f	10	0.09000000000000002	0	j	0	1.140250452735927
12	66	130	n/a	n/a	n/a	j	10	0.08000000000000003	2	j	1	1.035172233297999
12	67	110	n/a	n/a	n/a	j	10	0.09000000000000002	1	j	1	1.042130330759392
12	68	90	n/a	n/a	n/a	j	10	0.08000000000000003	1	j	1	0.9667852483544266
12	69	90	n/a	n/a	n/a	f	10	0.07000000000000003	1	f	1	0.9569613475778169
12	70	90	n/a	n/a	n/a	j	10	0.06000000000000003	1	j	1	0.976794462714679
12	71	90	n/a	n/a	n/a	j	10	0.05000000000000003	1	j	1	0.8785024267526751
13	0	84	j	1	0.008492493945595925	j	4	0.5000000000000003	1	j	1	0.426133149805537
13	1	84	n/a	n/a	n/a	j	4	0.4900000000000003	1	j	1	0.3799946287581406
13	2	84	n/a	n/a	n/a	f	4	0.4800000000000003	1	f	1	0.3603023519426642
13	3	84	n/a	n/a	n/a	j	4	0.4700000000000003	1	j	1	0.413349078335159
13	4	84	n/a	n/a	n/a	j	4	0.4600000000000003	1	j	1	0.4250070134057751
13	5	84	n/a	n/a	n/a	j	4	0.4500000000000003	1	j	1	0.3974206629773107
13	6	84	n/a	n/a	n/a	j	4	0.4400000000000003	1	j	1	0.4328988062388817
13	7	84	n/a	n/a	n/a	j	4	0.4300000000000003	1	j	1	0.3978135277775436
13	8	84	n/a	n/a	n/a	f	4	0.4200000000000003	1	f	1	0.3940359816260752
13	9	84	n/a	n/a	n/a	j	4	0.4100000000000003	1	j	1	0.4218404318889952
13	10	84	n/a	n/a	n/a	j	4	0.4000000000000002	1	j	1	0.4108878288316191
13	11	84	n/a	n/a	n/a	j	4	0.3900000000000002	1	j	1	0.4217192653140955
13	12	84	n/a	n/a	n/a	j	4	0.3800000000000002	1	j	1	0.4385189396180067
13	13	84	n/a	n/a	n/a	j	4	0.3700000000000002	1	j	1	0.4096413811494131
13	14	84	n/a	n/a	n/a	f	4	0.3600000000000002	1	f	1	0.3966369290628791
13	15	84	n/a	n/a	n/a	j	4	0.3500000000000002	1	j	1	0.4162987004092429
13	16	84	n/a	n/a	n/a	j	4	0.3400000000000002	1	j	1	0.4257950237879413
13	17	84	n/a	n/a	n/a	j	4	0.3300000000000002	1	j	1	0.4305071206035791
13	18	84	n/a	n/a	n/a	j	4	0.3200000000000002	1	j	1	0.4346424645227671
13	19	84	n/a	n/a	n/a	j	4	0.3100000000000002	1	j	1	0.4239418879406003
13	20	84	n/a	n/a	n/a	f	4	0.3000000000000002	1	f	1	0.4103062292742834
13	21	84	n/a	n/a	n/a	j	4	0.2900000000000001	1	j	1	0.4462208573004318
13	22	84	n/a	n/a	n/a	j	4	0.2800000000000001	1	j	1	0.4414434730842913
13	23	84	n/a	n/a	n/a	j	4	0.2700000000000001	1	j	1	0.4074147671544779
13	24	84	n/a	n/a	n/a	j	4	0.2600000000000001	1	j	1	0.420416083166856
13	25	84	n/a	n/a	n/a	j	4	0.2500000000000001	1	j	1	0.4247019587364775
13	26	84	n/a	n/a	n/a	f	4	0.2400000000000001	1	f	1	0.3873014008568134
13	27	84	n/a	n/a	n/a	j	4	0.2300000000000001	1	j	1	0.4225201050994656
13	28	84	n/a	n/a	n/a	j	4	0.2200000000000001	1	j	1	0.3983871445961995
13	29	84	n/a	n/a	n/a	j	4	0.2100000000000001	1	j	1	0.4253921805648133
13	30	84	n/a	n/a	n/a	j	4	0.2000000000000001	1	j	1	0.4215459258375631
13	31	84	n/a	n/a	n/a	j	4	0.1900000000000001	1	j	1	0.4400918243063643
13	32	84	n/a	n/a	n/a	f	4	0.18	1	f	1	0.4135104437027621
13	33	84	n/a	n/a	n/a	j	4	0.17	1	j	1	0.4321276166265307
13	34	84	n/a	n/a	n/a	j	4	0.16	1	j	1	0.4040916669327999
13	35	84	n/a	n/a	n/a	j	4	0.15	1	j	1	0.4324249736564525
13	36	84	n/a	n/a	n/a	j	4	0.14	1	j	1	0.4372687856666744
13	37	84	n/a	n/a	n/a	j	4	0.13	1	j	1	0.4260960870906274
13	38	84	n/a	n/a	n/a	f	4	0.12	1	f	1	0.3730114426853106
13	39	84	n/a	n/a	n/a	j	4	0.11	1	j	1	0.4677038335394172
13	40	84	n/a	n/a	n/a	j	4	0.1	1	j	1	0.5030941666700528
13	41	84	n/a	n/a	n/a	j	4	0.09000000000000002	2	j	1	0.3700324555356929
13	42	104	n/a	n/a	n/a	j	4	0.1	1	j	1	0.4230888752554165
13	43	84	n/a	n/a	n/a	j	4	0.09000000000000002	1	j	1	0.4388385342772381
13	44	84	n/a	n/a	n/a	f	4	0.08000000000000003	1	f	1	0.3971150381130428
13	45	84	n/a	n/a	n/a	j	4	0.07000000000000003	1	j	1	0.4002513992600143
13	46	84	n/a	n/a	n/a	j	4	0.06000000000000003	1	j	1	0.4298619442306517
13	47	84	n/a	n/a	n/a	j	4	0.05000000000000003	1	j	1	0.39603166638517
13	48	84	n/a	n/a	n/a	j	4	0.04000000000000003	1	j	1	0.4218649503018241
13	49	84	n/a	n/a	n/a	j	4	0.03000000000000003	2	j	1	0.401023729260487
13	50	104	n/a	n/a	n/a	f	4	0.04000000000000003	1	f	1	0.3719240795890073
13	51	84	n/a	n/a	n/a	j	4	0.03000000000000003	1	j	1	0.4401545458276814
13	52	84	n/a	n/a	n/a	j	4	0.02000000000000002	2	j	1	0.3862587981202523
13	53	104	n/a	n/a	n/a	j	4	0.03000000000000003	1	j	1	0.3827780388000974
13	54	84	n/a	n/a	n/a	j	4	0.02000000000000002	1	j	1	0.4537283382669557
13	55	84	n/a	n/a	n/a	j	4	0.01000000000000002	2	j	1	0.3850425708060357
13	56	104	n/a	n/a	n/a	f	4	0.02000000000000002	1	f	1	0.3905147384175507
13	57	84	n/a	n/a	n/a	j	4	0.01000000000000002	1	j	1	0.4013458898007229
13	58	84	n/a	n/a	n/a	j	4	2.42861286636753e-17	2	j	1	0.4221979445592297
13	59	104	n/a	n/a	n/a	j	4	0.01000000000000002	2	j	1	0.390201130812784
13	60	104	n/a	n/a	n/a	j	4	0.02000000000000002	1	j	1	0.4314302673519705
13	61	84	n/a	n/a	n/a	j	4	0.01000000000000002	2	j	1	0.4046079790896329
13	62	104	n/a	n/a	n/a	f	4	0.02000000000000002	1	f	1	0.3947678277381783
13	63	84	n/a	n/a	n/a	j	4	0.01000000000000002	1	j	1	0.3874721744523413
13	64	84	n/a	n/a	n/a	j	4	2.42861286636753e-17	2	j	1	0.3483393622009316
13	65	104	n/a	n/a	n/a	j	4	0.01000000000000002	0	j	1	0.4093445943180996
13	66	64	n/a	n/a	n/a	j	4	0.02000000000000002	2	j	1	0.4583397955520923
13	67	104	n/a	n/a	n/a	j	4	0.03000000000000003	2	j	1	0.479333258826955
13	68	104	n/a	n/a	n/a	f	4	0.04000000000000003	2	f	1	0.404246475050968
13	69	104	n/a	n/a	n/a	j	4	0.05000000000000003	1	j	1	0.4014453889412835
13	70	84	n/a	n/a	n/a	j	4	0.04000000000000003	1	j	1	0.3833285626969882
13	71	84	n/a	n/a	n/a	j	4	0.03000000000000003	1	j	1	0.3972490340893273
14	0	91	f	1	0.1600296843862452	f	11	0.14	0	f	1	1.015562064656478
14	1	71	n/a	n/a	n/a	f	11	0.15	1	f	1	1.001696902239928
14	2	91	n/a	n/a	n/a	j	11	0.14	1	j	1	1.099859788890171
14	3	91	n/a	n/a	n/a	f	11	0.13	1	f	1	0.9108020143867179
14	4	91	n/a	n/a	n/a	f	11	0.12	1	f	1	1.043762230698121
14	5	91	n/a	n/a	n/a	f	11	0.11	1	f	1	1.002979557346407
14	6	91	n/a	n/a	n/a	f	11	0.1	1	f	1	1.026426287387949
14	7	91	n/a	n/a	n/a	f	11	0.09000000000000002	1	f	1	1.065517190258106
14	8	91	n/a	n/a	n/a	j	11	0.08000000000000003	1	j	1	0.9654906191426562
14	9	91	n/a	n/a	n/a	f	11	0.07000000000000003	1	f	1	0.8984336155408528
14	10	91	n/a	n/a	n/a	f	11	0.06000000000000003	0	f	1	1.027152716640558
14	11	71	n/a	n/a	n/a	f	11	0.07000000000000003	1	f	1	1.175305225729971
14	12	91	n/a	n/a	n/a	f	11	0.06000000000000003	2	f	1	1.038928112013309
14	13	111	n/a	n/a	n/a	f	11	0.07000000000000003	1	f	1	1.036021539712237
14	14	91	n/a	n/a	n/a	j	11	0.06000000000000003	1	j	1	0.8729718140893965
14	15	91	n/a	n/a	n/a	f	11	0.05000000000000003	0	f	1	1.022806970528109
14	16	71	n/a	n/a	n/a	f	11	0.06000000000000003	1	f	1	1.001033764705426
14	17	91	n/a	n/a	n/a	f	11	0.05000000000000003	1	f	1	0.9817494628769055
14	18	91	n/a	n/a	n/a	f	11	0.04000000000000003	1	f	1	1.018637414868863
14	19	91	n/a	n/a	n/a	f	11	0.03000000000000003	1	f	1	1.006211996460479
14	20	91	n/a	n/a	n/a	j	11	0.02000000000000002	1	j	1	0.9495200093060703
14	21	91	n/a	n/a	n/a	f	11	0.01000000000000002	0	f	1	0.9864678318426741
14	22	71	n/a	n/a	n/a	f	11	0.02000000000000002	1	f	1	1.055377686190695
14	23	91	n/a	n/a	n/a	f	11	0.01000000000000002	2	f	1	0.9522167496106704
14	24	111	n/a	n/a	n/a	f	11	0.02000000000000002	0	f	1	1.020339733968285
14	25	71	n/a	n/a	n/a	f	11	0.03000000000000003	2	f	1	1.049622701541011
14	26	111	n/a	n/a	n/a	j	11	0.04000000000000003	2	j	1	0.9491904362221248
14	27	111	n/a	n/a	n/a	f	11	0.05000000000000003	1	f	1	0.8004891138243693
14	28	91	n/a	n/a	n/a	f	11	0.04000000000000003	0	f	1	0.8922626731691707
14	29	71	n/a	n/a	n/a	f	11	0.05000000000000003	0	f	1	1.1191617667846
14	30	71	n/a	n/a	n/a	f	11	0.06000000000000003	2	f	1	0.8822423399924446
14	31	111	n/a	n/a	n/a	f	11	0.07000000000000003	0	f	1	0.9269140327414789
14	32	71	n/a	n/a	n/a	j	11	0.08000000000000003	1	j	1	0.9603423226562882
14	33	91	n/a	n/a	n/a	f	11	0.07000000000000003	1	f	1	0.941168353685498
14	34	91	n/a	n/a	n/a	f	11	0.06000000000000003	1	f	1	0.9753615610588895
14	35	91	n/a	n/a	n/a	f	11	0.05000000000000003	1	f	1	0.9388456617234624
14	36	91	n/a	n/a	n/a	f	11	0.04000000000000003	0	f	1	0.9776825424323761
14	37	71	n/a	n/a	n/a	f	11	0.05000000000000003	1	f	1	0.9231863787099428
14	38	91	n/a	n/a	n/a	j	11	0.04000000000000003	0	j	1	0.8806720211850916
14	39	71	n/a	n/a	n/a	f	11	0.05000000000000003	0	f	1	0.862490477733445
14	40	71	n/a	n/a	n/a	f	11	0.06000000000000003	0	f	1	0.9804713693356462
14	41	71	n/a	n/a	n/a	f	11	0.07000000000000003	1	f	1	0.9875503482762724
14	42	91	n/a	n/a	n/a	f	11	0.06000000000000003	1	f	1	0.929469364527904
14	43	91	n/a	n/a	n/a	f	11	0.05000000000000003	0	f	1	0.8342720654309232
14	44	71	n/a	n/a	n/a	j	11	0.06000000000000003	0	j	1	0.8805810749781813
14	45	71	n/a	n/a	n/a	f	11	0.07000000000000003	0	f	1	0.9339636466065713
14	46	71	n/a	n/a	n/a	f	11	0.08000000000000003	1	f	1	0.8737541225145833
14	47	91	n/a	n/a	n/a	f	11	0.07000000000000003	0	f	1	0.9483194623753661
14	48	71	n/a	n/a	n/a	f	11	0.08000000000000003	1	f	1	0.9390897054599918
14	49	91	n/a	n/a	n/a	f	11	0.07000000000000003	1	f	1	0.8811512706233771
14	50	91	n/a	n/a	n/a	j	11	0.06000000000000003	0	j	1	0.8029284107960848
14	51	71	n/a	n/a	n/a	f	11	0.07000000000000003	0	f	1	0.8792476724611333
14	52	71	n/a	n/a	n/a	f	11	0.08000000000000003	0	f	1	0.8760286329434166
14	53	71	n/a	n/a	n/a	f	11	0.09000000000000002	0	f	1	0.8891724978675484
14	54	71	n/a	n/a	n/a	f	11	0.1	1	f	1	0.8598427742526837
14	55	91	n/a	n/a	n/a	f	11	0.09000000000000002	0	f	1	0.7519016024780285
14	56	71	n/a	n/a	n/a	j	11	0.1	0	j	1	0.8639179625315592
14	57	71	n/a	n/a	n/a	f	11	0.11	0	f	1	0.9558916605456034
14	58	71	n/a	n/a	n/a	f	11	0.12	1	f	1	1.090699310747368
14	59	91	n/a	n/a	n/a	f	11	0.11	1	f	1	0.9605034029282251
14	60	91	n/a	n/a	n/a	f	11	0.1	1	f	1	1.243557359401166
14	61	91	n/a	n/a	n/a	f	11	0.09000000000000002	2	f	1	1.022097647144619
14	62	111	n/a	n/a	n/a	j	11	0.1	1	j	1	0.9053158769838774
14	63	91	n/a	n/a	n/a	f	11	0.09000000000000002	1	f	1	0.9265619369325577
14	64	91	n/a	n/a	n/a	f	11	0.08000000000000003	1	f	1	0.8864558007135201
14	65	91	n/a	n/a	n/a	f	11	0.07000000000000003	0	f	1	1.084137214160364
14	66	71	n/a	n/a	n/a	f	11	0.08000000000000003	2	f	1	1.169438482733312
14	67	111	n/a	n/a	n/a	f	11	0.09000000000000002	2	f	1	0.9475380092408159
14	68	111	n/a	n/a	n/a	j	11	0.1	1	j	1	0.9120618616652791
14	69	91	n/a	n/a	n/a	f	11	0.09000000000000002	1	f	1	0.9043442636029795
14	70	91	n/a	n/a	n/a	f	11	0.08000000000000003	0	f	1	0.95712100235869
14	71	71	n/a	n/a	n/a	f	11	0.09000000000000002	1	f	1	1.020913635886245
15	0	82	j	1	0.01275499149414827	j	2	0.02000000000000001	2	j	1	0.4189769093572977
15	1	102	n/a	n/a	n/a	f	2	0.03000000000000001	2	f	1	0.3891858974639035
15	2	102	n/a	n/a	n/a	j	2	0.04000000000000001	1	j	1	0.4088758934976795
15	3	82	n/a	n/a	n/a	j	2	0.03000000000000001	1	j	1	0.3800066028652509
15	4	82	n/a	n/a	n/a	j	2	0.02000000000000001	1	j	1	0.3681907236004918
15	5	82	n/a	n/a	n/a	f	2	0.01000000000000001	0	f	1	0.380059345961854
15	6	62	n/a	n/a	n/a	j	2	0.02000000000000001	1	j	1	0.4009034179798618
15	7	82	n/a	n/a	n/a	j	2	0.01000000000000001	2	j	1	0.4040930924220447
15	8	102	n/a	n/a	n/a	j	2	0.02000000000000001	2	j	1	0.3759744643575686
15	9	102	n/a	n/a	n/a	f	2	0.03000000000000001	1	f	1	0.3479801389457862
15	10	82	n/a	n/a	n/a	j	2	0.02000000000000001	0	j	1	0.4242968347298302
15	11	62	n/a	n/a	n/a	j	2	0.03000000000000001	2	j	1	0.3961514074708248
15	12	102	n/a	n/a	n/a	j	2	0.04000000000000001	1	j	1	0.3639025672491698
15	13	82	n/a	n/a	n/a	f	2	0.03000000000000001	1	f	1	0.3748862459669908
15	14	82	n/a	n/a	n/a	j	2	0.02000000000000001	1	j	1	0.40199049597868
15	15	82	n/a	n/a	n/a	j	2	0.01000000000000001	2	j	1	0.351020137029991
15	16	102	n/a	n/a	n/a	j	2	0.02000000000000001	0	j	1	0.3888409291012067
15	17	62	n/a	n/a	n/a	f	2	0.03000000000000001	1	f	1	0.3780648015945189
15	18	82	n/a	n/a	n/a	j	2	0.02000000000000001	1	j	1	0.3892588825074199
15	19	82	n/a	n/a	n/a	j	2	0.01000000000000001	1	j	1	0.3758732546320971
15	20	82	n/a	n/a	n/a	j	2	1.040834085586084e-17	0	j	1	0.4128091030597716
15	21	62	n/a	n/a	n/a	f	2	0.01000000000000001	2	f	1	0.3715697029965668
15	22	102	n/a	n/a	n/a	j	2	0.02000000000000001	1	j	1	0.3897743393699784
15	23	82	n/a	n/a	n/a	j	2	0.01000000000000001	1	j	1	0.3935122569255327
15	24	82	n/a	n/a	n/a	j	2	1.040834085586084e-17	2	j	1	0.3693171450995578
15	25	102	n/a	n/a	n/a	f	2	0.01000000000000001	0	f	1	0.3817696478017751
15	26	62	n/a	n/a	n/a	j	2	0.02000000000000001	1	j	1	0.3872979796815343
15	27	82	n/a	n/a	n/a	j	2	0.01000000000000001	1	j	1	0.3630481290729222
15	28	82	n/a	n/a	n/a	j	2	1.040834085586084e-17	0	j	1	0.2453027282717812
15	29	62	n/a	n/a	n/a	f	2	0.01000000000000001	0	f	1	0.4105904718035163
15	30	62	n/a	n/a	n/a	j	2	0.02000000000000001	2	j	1	0.3892965154191188
15	31	102	n/a	n/a	n/a	j	2	0.03000000000000001	1	j	1	0.4007232361564093
15	32	82	n/a	n/a	n/a	j	2	0.02000000000000001	1	j	1	1.004334627297794
15	33	82	n/a	n/a	n/a	f	2	0.01000000000000001	2	f	1	0.3687740337463765
15	34	102	n/a	n/a	n/a	j	2	0.02000000000000001	1	j	1	0.4272903618675628
15	35	82	n/a	n/a	n/a	j	2	0.01000000000000001	2	j	1	0.3992053753481741
15	36	102	n/a	n/a	n/a	j	2	0.02000000000000001	1	j	1	0.4345851598609443
15	37	82	n/a	n/a	n/a	f	2	0.01000000000000001	2	f	1	0.414417910073098
15	38	102	n/a	n/a	n/a	j	2	0.02000000000000001	2	j	1	0.3885216195394605
15	39	102	n/a	n/a	n/a	j	2	0.03000000000000001	1	j	1	0.4040283752165124
15	40	82	n/a	n/a	n/a	j	2	0.02000000000000001	1	j	1	0.4019696838367963
15	41	82	n/a	n/a	n/a	f	2	0.01000000000000001	2	f	1	0.4222207523835095
15	42	102	n/a	n/a	n/a	j	2	0.02000000000000001	2	j	1	0.3863645694109437
15	43	102	n/a	n/a	n/a	j	2	0.03000000000000001	1	j	1	0.4063006048636453
15	44	82	n/a	n/a	n/a	j	2	0.02000000000000001	2	j	1	0.2910207300337788
15	45	102	n/a	n/a	n/a	f	2	0.03000000000000001	0	f	1	0.5039679914971202
15	46	62	n/a	n/a	n/a	j	2	0.04000000000000001	2	j	1	0.4424561405503482
15	47	102	n/a	n/a	n/a	j	2	0.05000000000000002	2	j	1	0.3908722510859661
15	48	102	n/a	n/a	n/a	j	2	0.06000000000000002	1	j	1	0.3928625189873856
15	49	82	n/a	n/a	n/a	f	2	0.05000000000000002	1	f	1	0.4449684225655801
15	50	82	n/a	n/a	n/a	j	2	0.04000000000000001	2	j	1	0.3682830952966469
15	51	102	n/a	n/a	n/a	j	2	0.05000000000000002	1	j	1	0.4437781391552562
15	52	82	n/a	n/a	n/a	j	2	0.04000000000000001	2	j	1	0.3942064701241179
15	53	102	n/a	n/a	n/a	f	2	0.05000000000000002	1	f	1	0.3898324993260758
15	54	82	n/a	n/a	n/a	j	2	0.04000000000000001	1	j	1	0.3778994448566664
15	55	82	n/a	n/a	n/a	j	2	0.03000000000000001	1	j	1	0.3499148127702938
15	56	82	n/a	n/a	n/a	j	2	0.02000000000000001	0	j	1	0.4091279199728888
15	57	62	n/a	n/a	n/a	f	2	0.03000000000000001	1	f	1	0.4040121246398485
15	58	82	n/a	n/a	n/a	j	2	0.02000000000000001	2	j	1	0.400109420543231
15	59	102	n/a	n/a	n/a	j	2	0.03000000000000001	1	j	1	0.367513616271026
15	60	82	n/a	n/a	n/a	j	2	0.02000000000000001	1	j	1	0.3947147995422711
15	61	82	n/a	n/a	n/a	f	2	0.01000000000000001	1	f	1	0.3905412525145948
15	62	82	n/a	n/a	n/a	j	2	1.040834085586084e-17	2	j	1	0.4024412356375251
15	63	102	n/a	n/a	n/a	j	2	0.01000000000000001	2	j	1	0.3907610629357805
15	64	102	n/a	n/a	n/a	j	2	0.02000000000000001	1	j	1	0.394325070819832
15	65	82	n/a	n/a	n/a	f	2	0.01000000000000001	1	f	1	0.3347858117067517
15	66	82	n/a	n/a	n/a	j	2	1.040834085586084e-17	0	j	1	0.2388116210422595
15	67	62	n/a	n/a	n/a	j	2	0.01000000000000001	0	f	0	0.4053851557546295
15	68	122	n/a	n/a	n/a	j	2	0.02000000000000001	2	j	1	0.4187516820766177
15	69	102	n/a	n/a	n/a	f	2	0.03000000000000001	2	j	0	0.4225423427287751
15	70	122	n/a	n/a	n/a	j	2	0.02000000000000001	2	j	1	0.4263863166725059
15	71	102	n/a	n/a	n/a	j	2	0.03000000000000001	2	j	1	0.4167825114163861
16	0	105	f	1	1.294356089460052	f	5	0.04000000000000001	0	f	1	0.5936757320159813
16	1	65	n/a	n/a	n/a	j	5	0.05000000000000002	1	j	1	0.5646162811372051
16	2	85	n/a	n/a	n/a	f	5	0.04000000000000001	1	f	1	0.54193190267506
16	3	85	n/a	n/a	n/a	f	5	0.03000000000000001	0	f	1	0.5484346989142068
16	4	65	n/a	n/a	n/a	f	5	0.04000000000000001	1	f	1	0.5149456831641146
16	5	85	n/a	n/a	n/a	j	5	0.03000000000000001	0	j	1	0.581491221266333
16	6	65	n/a	n/a	n/a	f	5	0.04000000000000001	1	f	1	0.5793210566425842
16	7	85	n/a	n/a	n/a	f	5	0.03000000000000001	1	f	1	0.5215687906838866
16	8	85	n/a	n/a	n/a	f	5	0.02000000000000001	0	f	1	0.5740544445616251
16	9	65	n/a	n/a	n/a	j	5	0.03000000000000001	1	j	1	0.611360920158404
16	10	85	n/a	n/a	n/a	f	5	0.02000000000000001	2	f	1	0.534194062665847
16	11	105	n/a	n/a	n/a	f	5	0.03000000000000001	0	f	1	0.5372015596003621
16	12	65	n/a	n/a	n/a	f	5	0.04000000000000001	0	f	1	0.5839795550655253
16	13	65	n/a	n/a	n/a	j	5	0.05000000000000002	0	f	0	0.5631277854045038
16	14	125	n/a	n/a	n/a	f	5	0.04000000000000001	0	j	0	0.04612369596361532
16	15	125	n/a	n/a	n/a	f	5	0.03000000000000001	0	f	1	0.5022183461587701
16	16	65	n/a	n/a	n/a	f	5	0.04000000000000001	0	f	1	0.5807801872979326
16	17	65	n/a	n/a	n/a	j	5	0.05000000000000002	1	j	1	0.5378829433957435
16	18	85	n/a	n/a	n/a	f	5	0.04000000000000001	0	f	1	0.544153384909805
16	19	65	n/a	n/a	n/a	f	5	0.05000000000000002	1	f	1	0.5668560096346482
16	20	85	n/a	n/a	n/a	f	5	0.04000000000000001	1	f	1	0.5372862336535036
16	21	85	n/a	n/a	n/a	j	5	0.03000000000000001	0	j	1	0.5649720832207095
16	22	65	n/a	n/a	n/a	f	5	0.04000000000000001	1	f	1	0.5361201835567044
16	23	85	n/a	n/a	n/a	f	5	0.03000000000000001	0	f	1	0.522141552208268
16	24	65	n/a	n/a	n/a	f	5	0.04000000000000001	0	f	1	0.5984602436801651
16	25	65	n/a	n/a	n/a	j	5	0.05000000000000002	1	j	1	0.5925886540189822
16	26	85	n/a	n/a	n/a	f	5	0.04000000000000001	1	f	1	0.5158705404992361
16	27	85	n/a	n/a	n/a	f	5	0.03000000000000001	0	f	1	0.5374370503996033
16	28	65	n/a	n/a	n/a	f	5	0.04000000000000001	0	f	1	0.5656064258764673
16	29	65	n/a	n/a	n/a	j	5	0.05000000000000002	1	j	1	0.56835362849597
16	30	85	n/a	n/a	n/a	f	5	0.04000000000000001	1	f	1	0.5236109463876346
16	31	85	n/a	n/a	n/a	f	5	0.03000000000000001	0	f	1	0.5622619433179352
16	32	65	n/a	n/a	n/a	f	5	0.04000000000000001	1	f	1	0.5411199440750352
16	33	85	n/a	n/a	n/a	j	5	0.03000000000000001	0	j	1	0.5705748256332299
16	34	65	n/a	n/a	n/a	f	5	0.04000000000000001	1	f	1	0.5426004570690566
16	35	85	n/a	n/a	n/a	f	5	0.03000000000000001	0	f	1	0.5713705336565909
16	36	65	n/a	n/a	n/a	f	5	0.04000000000000001	1	f	1	0.5594617125043442
16	37	85	n/a	n/a	n/a	j	5	0.03000000000000001	1	j	1	0.5643354597832513
16	38	85	n/a	n/a	n/a	f	5	0.02000000000000001	0	f	1	0.5141918845201872
16	39	65	n/a	n/a	n/a	f	5	0.03000000000000001	0	f	1	0.6140143255961448
16	40	65	n/a	n/a	n/a	f	5	0.04000000000000001	1	f	1	0.5782334084469767
16	41	85	n/a	n/a	n/a	j	5	0.03000000000000001	1	j	1	0.5741721899612457
16	42	85	n/a	n/a	n/a	f	5	0.02000000000000001	1	f	1	0.5690817683353089
16	43	85	n/a	n/a	n/a	f	5	0.01000000000000001	0	f	1	0.595967348315753
16	44	65	n/a	n/a	n/a	f	5	0.02000000000000001	1	f	1	0.5774063396638667
16	45	85	n/a	n/a	n/a	j	5	0.01000000000000001	0	j	1	0.5409243669691932
16	46	65	n/a	n/a	n/a	f	5	0.02000000000000001	0	f	1	0.6174141171322844
16	47	65	n/a	n/a	n/a	f	5	0.03000000000000001	1	f	1	0.6613964433472574
16	48	85	n/a	n/a	n/a	f	5	0.02000000000000001	2	f	1	0.5453014738413913
16	49	105	n/a	n/a	n/a	j	5	0.03000000000000001	0	j	1	0.659871455092798
16	50	65	n/a	n/a	n/a	f	5	0.04000000000000001	2	f	1	0.5279418674126646
16	51	105	n/a	n/a	n/a	f	5	0.05000000000000002	0	f	1	0.4836422273219796
16	52	65	n/a	n/a	n/a	f	5	0.06000000000000002	0	f	1	0.5746873617281381
16	53	65	n/a	n/a	n/a	j	5	0.07000000000000002	1	j	1	0.473673781947582
16	54	85	n/a	n/a	n/a	f	5	0.06000000000000002	0	f	1	0.5576479201554321
16	55	65	n/a	n/a	n/a	f	5	0.07000000000000002	1	f	1	0.5732729914288939
16	56	85	n/a	n/a	n/a	f	5	0.06000000000000002	1	f	1	0.5798390793861472
16	57	85	n/a	n/a	n/a	j	5	0.05000000000000002	1	j	1	0.5457388139020622
16	58	85	n/a	n/a	n/a	f	5	0.04000000000000001	1	f	1	0.5597282789676683
16	59	85	n/a	n/a	n/a	f	5	0.03000000000000001	1	f	1	0.562542764673708
16	60	85	n/a	n/a	n/a	f	5	0.02000000000000001	0	f	1	0.5810957905887335
16	61	65	n/a	n/a	n/a	j	5	0.03000000000000001	1	j	1	0.5790733066332905
16	62	85	n/a	n/a	n/a	f	5	0.02000000000000001	1	f	1	0.5594066886242217
16	63	85	n/a	n/a	n/a	f	5	0.01000000000000001	0	f	1	0.5782924236955296
16	64	65	n/a	n/a	n/a	f	5	0.02000000000000001	1	f	1	0.7435536531302205
16	65	85	n/a	n/a	n/a	j	5	0.01000000000000001	1	f	0	0.4901575678650261
16	66	125	n/a	n/a	n/a	f	5	0.02000000000000001	0	f	1	0.5743634906011721
16	67	65	n/a	n/a	n/a	f	5	0.03000000000000001	1	f	1	0.5463084393522877
16	68	85	n/a	n/a	n/a	f	5	0.02000000000000001	0	f	1	0.5833497739749873
16	69	65	n/a	n/a	n/a	j	5	0.03000000000000001	1	j	1	0.5482436833735846
16	70	85	n/a	n/a	n/a	f	5	0.02000000000000001	0	f	1	0.5612102174491156
16	71	65	n/a	n/a	n/a	f	5	0.03000000000000001	1	f	1	0.534766253997077
17	0	89	f	1	0.7672963147124392	f	9	0.06000000000000003	0	f	1	0.8516755769232986
17	1	69	n/a	n/a	n/a	j	9	0.07000000000000003	0	j	1	1.063892132668116
17	2	69	n/a	n/a	n/a	f	9	0.08000000000000003	1	f	1	1.146621248683005
17	3	89	n/a	n/a	n/a	f	9	0.07000000000000003	2	f	1	1.069647972612074
17	4	109	n/a	n/a	n/a	f	9	0.08000000000000003	2	f	1	0.9312346902479476
17	5	109	n/a	n/a	n/a	j	9	0.09000000000000002	1	j	1	0.8774780702751741
17	6	89	n/a	n/a	n/a	f	9	0.08000000000000003	0	f	1	1.059196001333476
17	7	69	n/a	n/a	n/a	f	9	0.09000000000000002	1	f	1	1.017150344625406
17	8	89	n/a	n/a	n/a	f	9	0.08000000000000003	1	f	1	0.8633856848973664
17	9	89	n/a	n/a	n/a	j	9	0.07000000000000003	0	j	1	0.9150913111316186
17	10	69	n/a	n/a	n/a	f	9	0.08000000000000003	1	f	1	0.9371422022322804
17	11	89	n/a	n/a	n/a	f	9	0.07000000000000003	1	f	1	0.9239116675707919
17	12	89	n/a	n/a	n/a	f	9	0.06000000000000003	0	f	1	0.9849220314463309
17	13	69	n/a	n/a	n/a	j	9	0.07000000000000003	1	j	1	0.9238626307451341
17	14	89	n/a	n/a	n/a	f	9	0.06000000000000003	1	f	1	0.895842646528763
17	15	89	n/a	n/a	n/a	f	9	0.05000000000000003	0	f	1	1.003598504719776
17	16	69	n/a	n/a	n/a	f	9	0.06000000000000003	1	f	1	0.9327705122177576
17	17	89	n/a	n/a	n/a	j	9	0.05000000000000003	0	j	1	0.8688912089510268
17	18	69	n/a	n/a	n/a	f	9	0.06000000000000003	0	f	1	1.018888871150921
17	19	69	n/a	n/a	n/a	f	9	0.07000000000000003	1	f	1	1.078522782738219
17	20	89	n/a	n/a	n/a	f	9	0.06000000000000003	2	f	1	1.04332489063745
17	21	109	n/a	n/a	n/a	j	9	0.07000000000000003	1	j	1	0.9436732231570204
17	22	89	n/a	n/a	n/a	f	9	0.06000000000000003	1	f	1	0.9332209667791176
17	23	89	n/a	n/a	n/a	f	9	0.05000000000000003	0	f	1	0.8933611550801288
17	24	69	n/a	n/a	n/a	f	9	0.06000000000000003	0	f	1	0.9712045497035433
17	25	69	n/a	n/a	n/a	j	9	0.07000000000000003	1	j	1	1.01659041250241
17	26	89	n/a	n/a	n/a	f	9	0.06000000000000003	1	f	1	0.9423868617795961
17	27	89	n/a	n/a	n/a	f	9	0.05000000000000003	1	f	1	0.9056066767625452
17	28	89	n/a	n/a	n/a	f	9	0.04000000000000003	0	f	1	0.8691939828386239
17	29	69	n/a	n/a	n/a	j	9	0.05000000000000003	0	j	1	1.023839879941079
17	30	69	n/a	n/a	n/a	f	9	0.06000000000000003	1	f	1	0.9630866743009392
17	31	89	n/a	n/a	n/a	f	9	0.05000000000000003	1	f	1	1.013920186294854
17	32	89	n/a	n/a	n/a	f	9	0.04000000000000003	1	f	1	0.9044722725266183
17	33	89	n/a	n/a	n/a	j	9	0.03000000000000003	0	j	1	0.885651539756509
17	34	69	n/a	n/a	n/a	f	9	0.04000000000000003	0	f	1	1.040625014255056
17	35	69	n/a	n/a	n/a	f	9	0.05000000000000003	2	f	1	1.027842938468893
17	36	109	n/a	n/a	n/a	f	9	0.06000000000000003	1	f	1	0.9261548172416951
17	37	89	n/a	n/a	n/a	j	9	0.05000000000000003	0	j	1	0.8590296752627182
17	38	69	n/a	n/a	n/a	f	9	0.06000000000000003	0	f	1	0.9117898783442797
17	39	69	n/a	n/a	n/a	f	9	0.07000000000000003	0	f	1	1.002306726484676
17	40	69	n/a	n/a	n/a	f	9	0.08000000000000003	1	f	1	0.9195197356111748
17	41	89	n/a	n/a	n/a	j	9	0.07000000000000003	1	j	1	0.8685958476071391
17	42	89	n/a	n/a	n/a	f	9	0.06000000000000003	0	f	1	0.9103900480331504
17	43	69	n/a	n/a	n/a	f	9	0.07000000000000003	0	f	1	0.9302322863022709
17	44	69	n/a	n/a	n/a	f	9	0.08000000000000003	1	f	1	0.8583990388779057
17	45	89	n/a	n/a	n/a	j	9	0.07000000000000003	0	j	1	0.9088419668551069
17	46	69	n/a	n/a	n/a	f	9	0.08000000000000003	1	f	1	0.9283879884878843
17	47	89	n/a	n/a	n/a	f	9	0.07000000000000003	1	f	1	0.9082509590680274
17	48	89	n/a	n/a	n/a	f	9	0.06000000000000003	0	f	1	0.9476871154020046
17	49	69	n/a	n/a	n/a	j	9	0.07000000000000003	1	j	1	0.8789223758467415
17	50	89	n/a	n/a	n/a	f	9	0.06000000000000003	0	f	1	0.9300888820962427
17	51	69	n/a	n/a	n/a	f	9	0.07000000000000003	1	f	1	0.9498624117895815
17	52	89	n/a	n/a	n/a	f	9	0.06000000000000003	1	f	1	2.259534811584672
17	53	89	n/a	n/a	n/a	j	9	0.05000000000000003	2	j	1	0.7698647609959153
17	54	109	n/a	n/a	n/a	f	9	0.06000000000000003	0	f	1	0.9476503377827612
17	55	69	n/a	n/a	n/a	f	9	0.07000000000000003	1	f	1	0.9526649233885109
17	56	89	n/a	n/a	n/a	f	9	0.06000000000000003	1	f	1	0.9567058999273286
17	57	89	n/a	n/a	n/a	j	9	0.05000000000000003	1	j	1	0.8406588268571795
17	58	89	n/a	n/a	n/a	f	9	0.04000000000000003	0	f	1	0.859450194549936
17	59	69	n/a	n/a	n/a	f	9	0.05000000000000003	0	f	1	0.9854645726045419
17	60	69	n/a	n/a	n/a	f	9	0.06000000000000003	1	f	1	0.9241306226995221
17	61	89	n/a	n/a	n/a	j	9	0.05000000000000003	0	j	1	0.8151525501434662
17	62	69	n/a	n/a	n/a	f	9	0.06000000000000003	0	f	1	0.9554275212904031
17	63	69	n/a	n/a	n/a	f	9	0.07000000000000003	1	f	1	0.8548230568885629
17	64	89	n/a	n/a	n/a	f	9	0.06000000000000003	0	f	1	0.8657668219111656
17	65	69	n/a	n/a	n/a	j	9	0.07000000000000003	0	j	1	0.8209354743794393
17	66	69	n/a	n/a	n/a	f	9	0.08000000000000003	0	f	1	0.8347416215456178
17	67	69	n/a	n/a	n/a	f	9	0.09000000000000002	0	f	1	0.9622533333640604
17	68	69	n/a	n/a	n/a	f	9	0.1	1	f	1	0.9327191946103994
17	69	89	n/a	n/a	n/a	j	9	0.09000000000000002	1	j	1	0.8576982684298855
17	70	89	n/a	n/a	n/a	f	9	0.08000000000000003	0	f	1	0.9886288733396214
17	71	69	n/a	n/a	n/a	f	9	0.09000000000000002	1	f	1	1.024883623067581
18	0	92	j	1	0.06966735926289402	j	12	0.06000000000000003	1	j	1	1.01039381132432
18	1	92	n/a	n/a	n/a	j	12	0.05000000000000003	1	j	1	0.9728276116093184
18	2	92	n/a	n/a	n/a	f	12	0.04000000000000003	1	f	1	1.000103205411506
18	3	92	n/a	n/a	n/a	j	12	0.03000000000000003	1	j	1	0.9708282205792784
18	4	92	n/a	n/a	n/a	j	12	0.02000000000000002	1	j	1	0.8693972575856606
18	5	92	n/a	n/a	n/a	j	12	0.01000000000000002	0	j	1	0.872938172546128
18	6	72	n/a	n/a	n/a	j	12	0.02000000000000002	0	j	1	0.9877427893061395
18	7	72	n/a	n/a	n/a	j	12	0.03000000000000003	1	j	1	1.024970863001727
18	8	92	n/a	n/a	n/a	f	12	0.02000000000000002	2	f	1	0.9472229761486233
18	9	112	n/a	n/a	n/a	j	12	0.03000000000000003	0	j	1	0.8718371247541654
18	10	72	n/a	n/a	n/a	j	12	0.04000000000000003	0	j	1	0.9245194961295056
18	11	72	n/a	n/a	n/a	j	12	0.05000000000000003	0	j	1	1.056820566273018
18	12	72	n/a	n/a	n/a	j	12	0.06000000000000003	2	j	1	0.9584900421032216
18	13	112	n/a	n/a	n/a	j	12	0.07000000000000003	1	j	1	0.9614245539942203
18	14	92	n/a	n/a	n/a	f	12	0.06000000000000003	1	f	1	0.9562352034226933
18	15	92	n/a	n/a	n/a	j	12	0.05000000000000003	1	j	1	0.9199428207812161
18	16	92	n/a	n/a	n/a	j	12	0.04000000000000003	0	j	1	1.009891468960632
18	17	72	n/a	n/a	n/a	j	12	0.05000000000000003	1	j	1	0.9255327337905328
18	18	92	n/a	n/a	n/a	j	12	0.04000000000000003	0	j	1	1.005869023780178
18	19	72	n/a	n/a	n/a	j	12	0.05000000000000003	1	j	1	0.9043542420276935
18	20	92	n/a	n/a	n/a	f	12	0.04000000000000003	0	f	1	0.899170593414965
18	21	72	n/a	n/a	n/a	j	12	0.05000000000000003	0	j	1	0.8387483863461966
18	22	72	n/a	n/a	n/a	j	12	0.06000000000000003	0	j	1	1.113888882551691
18	23	72	n/a	n/a	n/a	j	12	0.07000000000000003	2	j	1	1.077759860963852
18	24	112	n/a	n/a	n/a	j	12	0.08000000000000003	2	j	1	0.9457002686758642
18	25	112	n/a	n/a	n/a	j	12	0.09000000000000002	1	j	1	0.8997861196130543
18	26	92	n/a	n/a	n/a	f	12	0.08000000000000003	0	f	1	0.8492225952577428
18	27	72	n/a	n/a	n/a	j	12	0.09000000000000002	0	j	1	0.9757230650975544
18	28	72	n/a	n/a	n/a	j	12	0.1	1	j	1	0.9326020194039302
18	29	92	n/a	n/a	n/a	j	12	0.09000000000000002	1	j	1	0.897524723683091
18	30	92	n/a	n/a	n/a	j	12	0.08000000000000003	0	j	1	0.8563337902505737
18	31	72	n/a	n/a	n/a	j	12	0.09000000000000002	0	j	1	0.8687001934104046
18	32	72	n/a	n/a	n/a	f	12	0.1	0	f	1	0.8376553212929139
18	33	72	n/a	n/a	n/a	j	12	0.11	0	j	1	0.9375122592064145
18	34	72	n/a	n/a	n/a	j	12	0.12	1	j	1	0.9582548363996466
18	35	92	n/a	n/a	n/a	j	12	0.11	1	j	1	0.8764300506791187
18	36	92	n/a	n/a	n/a	j	12	0.1	0	j	1	0.843259204097194
18	37	72	n/a	n/a	n/a	j	12	0.11	0	j	1	0.8720201575561077
18	38	72	n/a	n/a	n/a	f	12	0.12	1	f	1	0.7957881358252052
18	39	92	n/a	n/a	n/a	j	12	0.11	0	j	1	0.8709319391673489
18	40	72	n/a	n/a	n/a	j	12	0.12	1	j	1	0.8102220683958876
18	41	92	n/a	n/a	n/a	j	12	0.11	0	j	1	0.8849878320252174
18	42	72	n/a	n/a	n/a	j	12	0.12	1	j	1	0.7281444009076949
18	43	92	n/a	n/a	n/a	j	12	0.11	0	j	1	0.874457458843608
18	44	72	n/a	n/a	n/a	f	12	0.12	1	f	1	1.045797829152434
18	45	92	n/a	n/a	n/a	j	12	0.11	1	j	1	0.9449992131303588
18	46	92	n/a	n/a	n/a	j	12	0.1	1	j	1	0.9316911318601342
18	47	92	n/a	n/a	n/a	j	12	0.09000000000000002	1	j	1	0.9423452374976478
18	48	92	n/a	n/a	n/a	j	12	0.08000000000000003	1	j	1	0.9796930522807088
18	49	92	n/a	n/a	n/a	j	12	0.07000000000000003	1	j	1	0.9443528963656718
18	50	92	n/a	n/a	n/a	f	12	0.06000000000000003	1	f	1	0.8200550923029368
18	51	92	n/a	n/a	n/a	j	12	0.05000000000000003	0	j	1	0.8235974327508302
18	52	72	n/a	n/a	n/a	j	12	0.06000000000000003	0	j	1	0.8984994731381448
18	53	72	n/a	n/a	n/a	j	12	0.07000000000000003	0	j	1	0.9649158619304217
18	54	72	n/a	n/a	n/a	j	12	0.08000000000000003	1	j	1	0.9523307887411647
18	55	92	n/a	n/a	n/a	j	12	0.07000000000000003	1	j	1	0.8440626097635686
18	56	92	n/a	n/a	n/a	f	12	0.06000000000000003	0	f	1	0.8709211054501793
18	57	72	n/a	n/a	n/a	j	12	0.07000000000000003	0	j	1	0.8425034097708703
18	58	72	n/a	n/a	n/a	j	12	0.08000000000000003	0	j	1	0.9039964442599739
18	59	72	n/a	n/a	n/a	j	12	0.09000000000000002	1	j	1	0.9763896238073357
18	60	92	n/a	n/a	n/a	j	12	0.08000000000000003	1	j	1	1.011901123512871
18	61	92	n/a	n/a	n/a	j	12	0.07000000000000003	1	j	1	0.9837773636882048
18	62	92	n/a	n/a	n/a	f	12	0.06000000000000003	1	f	1	0.9799154285810801
18	63	92	n/a	n/a	n/a	j	12	0.05000000000000003	1	j	1	0.9936568585399073
18	64	92	n/a	n/a	n/a	j	12	0.04000000000000003	1	j	1	0.8928263115649315
18	65	92	n/a	n/a	n/a	j	12	0.03000000000000003	0	j	1	0.9476013009589224
18	66	72	n/a	n/a	n/a	j	12	0.04000000000000003	1	j	1	0.9768785665728501
18	67	92	n/a	n/a	n/a	j	12	0.03000000000000003	1	j	1	0.9954176226947311
18	68	92	n/a	n/a	n/a	f	12	0.02000000000000002	1	f	1	0.9471662416799518
18	69	92	n/a	n/a	n/a	j	12	0.01000000000000002	0	j	1	0.8866086131474731
18	70	72	n/a	n/a	n/a	j	12	0.02000000000000002	0	j	1	1.133348519544597
18	71	72	n/a	n/a	n/a	j	12	0.03000000000000003	2	j	1	0.9934444606642501
19	0	101	f	1	0.03515569762203086	f	1	0.02000000000000001	2	f	1	0.3922977401998651
19	1	101	n/a	n/a	n/a	j	1	0.03000000000000001	1	j	1	0.4116211004311481
19	2	81	n/a	n/a	n/a	f	1	0.02000000000000001	2	f	1	0.4187696432400116
19	3	101	n/a	n/a	n/a	f	1	0.03000000000000001	1	f	1	0.3817465548781911
19	4	81	n/a	n/a	n/a	f	1	0.02000000000000001	1	f	1	0.3795028350123175
19	5	81	n/a	n/a	n/a	j	1	0.01000000000000001	0	j	1	0.3995856958445074
19	6	61	n/a	n/a	n/a	f	1	0.02000000000000001	1	f	1	0.41951831012193
19	7	81	n/a	n/a	n/a	f	1	0.01000000000000001	2	f	1	0.3616226399608422
19	8	101	n/a	n/a	n/a	f	1	0.02000000000000001	0	f	1	0.4464757347541308
19	9	61	n/a	n/a	n/a	j	1	0.03000000000000001	2	j	1	0.3763242793866084
19	10	101	n/a	n/a	n/a	f	1	0.04000000000000001	1	f	1	0.4440586754135438
19	11	81	n/a	n/a	n/a	f	1	0.03000000000000001	2	f	1	0.3736389429941482
19	12	101	n/a	n/a	n/a	f	1	0.04000000000000001	1	f	1	0.4042173950729193
19	13	81	n/a	n/a	n/a	j	1	0.03000000000000001	1	j	1	0.3753957157787227
19	14	81	n/a	n/a	n/a	f	1	0.02000000000000001	1	f	1	0.394724492867681
19	15	81	n/a	n/a	n/a	f	1	0.01000000000000001	1	f	1	0.3995118555067165
19	16	81	n/a	n/a	n/a	f	1	1.040834085586084e-17	2	f	1	0.3797702567717351
19	17	101	n/a	n/a	n/a	j	1	0.01000000000000001	1	j	1	0.3670146950826165
19	18	81	n/a	n/a	n/a	f	1	1.040834085586084e-17	0	f	1	0.3561017206211545
19	19	61	n/a	n/a	n/a	f	1	0.01000000000000001	0	f	1	0.3934466844275448
19	20	61	n/a	n/a	n/a	f	1	0.02000000000000001	1	f	1	0.397038061699277
19	21	81	n/a	n/a	n/a	j	1	0.01000000000000001	2	j	1	0.3775122820134129
19	22	101	n/a	n/a	n/a	f	1	0.02000000000000001	1	f	1	0.3980535801438236
19	23	81	n/a	n/a	n/a	f	1	0.01000000000000001	2	f	1	0.353456868120702
19	24	101	n/a	n/a	n/a	f	1	0.02000000000000001	0	f	1	0.4121947172516229
19	25	61	n/a	n/a	n/a	j	1	0.03000000000000001	1	j	1	0.3866719048637606
19	26	81	n/a	n/a	n/a	f	1	0.02000000000000001	1	f	1	0.3922675198300567
19	27	81	n/a	n/a	n/a	f	1	0.01000000000000001	1	f	1	0.3550431524054147
19	28	81	n/a	n/a	n/a	f	1	1.040834085586084e-17	0	f	1	0.3502215780263214
19	29	61	n/a	n/a	n/a	j	1	0.01000000000000001	0	j	1	0.3649306299976161
19	30	61	n/a	n/a	n/a	f	1	0.02000000000000001	1	f	1	0.3777138461755385
19	31	81	n/a	n/a	n/a	f	1	0.01000000000000001	0	f	1	0.3648177312607004
19	32	61	n/a	n/a	n/a	f	1	0.02000000000000001	0	f	1	0.3878792941432039
19	33	61	n/a	n/a	n/a	j	1	0.03000000000000001	1	j	1	0.3370238296156458
19	34	81	n/a	n/a	n/a	f	1	0.02000000000000001	0	f	1	0.3155323004430102
19	35	61	n/a	n/a	n/a	f	1	0.03000000000000001	0	f	1	0.4162351235954702
19	36	61	n/a	n/a	n/a	f	1	0.04000000000000001	1	f	1	0.395283569698222
19	37	81	n/a	n/a	n/a	j	1	0.03000000000000001	1	j	1	0.383260709415481
19	38	81	n/a	n/a	n/a	f	1	0.02000000000000001	1	f	1	0.3887582507322804
19	39	81	n/a	n/a	n/a	f	1	0.01000000000000001	1	f	1	0.3528809705185267
19	40	81	n/a	n/a	n/a	f	1	1.040834085586084e-17	0	f	1	0.3987395255062438
19	41	61	n/a	n/a	n/a	j	1	0.01000000000000001	2	j	1	0.3789734083547955
19	42	101	n/a	n/a	n/a	f	1	0.02000000000000001	1	f	1	0.4052956350369641
19	43	81	n/a	n/a	n/a	f	1	0.01000000000000001	2	f	1	0.3758170903602149
19	44	101	n/a	n/a	n/a	f	1	0.02000000000000001	1	f	1	0.3808576198662195
19	45	81	n/a	n/a	n/a	j	1	0.01000000000000001	1	j	1	0.3225893268499931
19	46	81	n/a	n/a	n/a	f	1	1.040834085586084e-17	0	f	1	0.3649511570420145
19	47	61	n/a	n/a	n/a	f	1	0.01000000000000001	0	f	1	0.4015924994182569
19	48	61	n/a	n/a	n/a	f	1	0.02000000000000001	1	f	1	0.3757401139482681
19	49	81	n/a	n/a	n/a	j	1	0.01000000000000001	0	j	1	0.3876916997760418
19	50	61	n/a	n/a	n/a	f	1	0.02000000000000001	1	f	1	0.3746966559174325
19	51	81	n/a	n/a	n/a	f	1	0.01000000000000001	0	f	1	0.371410618410664
19	52	61	n/a	n/a	n/a	f	1	0.02000000000000001	1	f	1	0.3526585942163365
19	53	81	n/a	n/a	n/a	j	1	0.01000000000000001	0	j	1	0.3635727090677392
19	54	61	n/a	n/a	n/a	f	1	0.02000000000000001	0	f	1	0.3744272384737997
19	55	61	n/a	n/a	n/a	f	1	0.03000000000000001	1	f	1	0.3954905507180229
19	56	81	n/a	n/a	n/a	f	1	0.02000000000000001	1	f	1	0.3593521208986203
19	57	81	n/a	n/a	n/a	j	1	0.01000000000000001	0	j	1	0.38365214872465
19	58	61	n/a	n/a	n/a	f	1	0.02000000000000001	1	f	1	0.3715742645617865
19	59	81	n/a	n/a	n/a	f	1	0.01000000000000001	0	f	1	0.390337692668254
19	60	61	n/a	n/a	n/a	f	1	0.02000000000000001	1	f	1	0.3802272685807111
19	61	81	n/a	n/a	n/a	j	1	0.01000000000000001	1	j	1	0.3982061074784724
19	62	81	n/a	n/a	n/a	f	1	1.040834085586084e-17	2	f	1	0.3854705026387819
19	63	101	n/a	n/a	n/a	f	1	0.01000000000000001	2	j	0	0.3890898194986221
19	64	121	n/a	n/a	n/a	f	1	1.040834085586084e-17	2	f	1	0.3723742490528821
19	65	101	n/a	n/a	n/a	j	1	0.01000000000000001	2	f	0	0.4436655255158257
19	66	121	n/a	n/a	n/a	f	1	0.02000000000000001	2	f	1	0.4150214621640771
19	67	101	n/a	n/a	n/a	f	1	0.03000000000000001	2	f	1	0.3711896675977187
19	68	101	n/a	n/a	n/a	f	1	0.04000000000000001	1	f	1	0.3631216843114089
19	69	81	n/a	n/a	n/a	j	1	0.03000000000000001	1	j	1	0.4077546037606226
19	70	81	n/a	n/a	n/a	f	1	0.02000000000000001	2	f	1	0.3780556784658984
19	71	101	n/a	n/a	n/a	f	1	0.03000000000000001	1	f	1	0.3652664752335113
20	0	87	f	1	0.009689619701021002	f	7	0.02000000000000001	0	f	1	0.5942370896300417
20	1	67	n/a	n/a	n/a	f	7	0.03000000000000001	1	f	1	0.6473585116527829
20	2	87	n/a	n/a	n/a	j	7	0.02000000000000001	2	j	1	0.573222244016506
20	3	107	n/a	n/a	n/a	f	7	0.03000000000000001	1	f	1	0.6138099104573485
20	4	87	n/a	n/a	n/a	f	7	0.02000000000000001	2	f	1	0.6422033728213137
20	5	107	n/a	n/a	n/a	f	7	0.03000000000000001	2	f	1	0.5670997682718735
20	6	107	n/a	n/a	n/a	f	7	0.04000000000000001	1	f	1	0.6200122135905985
20	7	87	n/a	n/a	n/a	f	7	0.03000000000000001	2	f	1	0.6337681835375406
20	8	107	n/a	n/a	n/a	j	7	0.04000000000000001	2	j	1	0.56857714518992
20	9	107	n/a	n/a	n/a	f	7	0.05000000000000002	1	f	1	0.5895412433910678
20	10	87	n/a	n/a	n/a	f	7	0.04000000000000001	1	f	1	0.584967133923783
20	11	87	n/a	n/a	n/a	f	7	0.03000000000000001	1	f	1	0.5336948563781334
20	12	87	n/a	n/a	n/a	f	7	0.02000000000000001	1	j	0	0.6490964679815079
20	13	127	n/a	n/a	n/a	f	7	0.03000000000000001	2	f	1	0.6137420571740222
20	14	107	n/a	n/a	n/a	j	7	0.04000000000000001	1	j	1	0.5445023446445703
20	15	87	n/a	n/a	n/a	f	7	0.03000000000000001	0	f	1	0.5874859731866309
20	16	67	n/a	n/a	n/a	f	7	0.04000000000000001	1	f	1	0.6245669364070636
20	17	87	n/a	n/a	n/a	f	7	0.03000000000000001	2	f	1	0.5816651309396548
20	18	107	n/a	n/a	n/a	f	7	0.04000000000000001	1	f	1	0.6942548227143561
20	19	87	n/a	n/a	n/a	f	7	0.03000000000000001	2	f	1	0.5539904001852847
20	20	107	n/a	n/a	n/a	j	7	0.04000000000000001	1	j	1	0.5590939363119105
20	21	87	n/a	n/a	n/a	f	7	0.03000000000000001	0	f	1	0.5512654351969104
20	22	67	n/a	n/a	n/a	f	7	0.04000000000000001	1	f	1	0.5553716991380497
20	23	87	n/a	n/a	n/a	f	7	0.03000000000000001	0	f	1	0.6037653439634596
20	24	67	n/a	n/a	n/a	f	7	0.04000000000000001	1	f	1	0.568605084776209
20	25	87	n/a	n/a	n/a	f	7	0.03000000000000001	1	f	1	0.5788363903429854
20	26	87	n/a	n/a	n/a	j	7	0.02000000000000001	1	j	1	0.567376883354882
20	27	87	n/a	n/a	n/a	f	7	0.01000000000000001	0	f	1	0.503336214722367
20	28	67	n/a	n/a	n/a	f	7	0.02000000000000001	0	f	1	0.5611968178509414
20	29	67	n/a	n/a	n/a	f	7	0.03000000000000001	1	f	1	0.5659784785348165
20	30	87	n/a	n/a	n/a	f	7	0.02000000000000001	1	f	1	0.6094949549096782
20	31	87	n/a	n/a	n/a	f	7	0.01000000000000001	2	f	1	0.6116066744834825
20	32	107	n/a	n/a	n/a	j	7	0.02000000000000001	2	j	1	0.5745006226534315
20	33	107	n/a	n/a	n/a	f	7	0.03000000000000001	1	f	1	0.4901108118228876
20	34	87	n/a	n/a	n/a	f	7	0.02000000000000001	0	f	1	0.5467645958688081
20	35	67	n/a	n/a	n/a	f	7	0.03000000000000001	0	f	1	0.5682156411494361
20	36	67	n/a	n/a	n/a	f	7	0.04000000000000001	1	f	1	0.7014455600019573
20	37	87	n/a	n/a	n/a	f	7	0.03000000000000001	2	f	1	0.6492375914040167
20	38	107	n/a	n/a	n/a	j	7	0.04000000000000001	2	j	1	0.5884002819038869
20	39	107	n/a	n/a	n/a	f	7	0.05000000000000002	1	f	1	0.568876497904057
20	40	87	n/a	n/a	n/a	f	7	0.04000000000000001	1	f	1	0.5647522727995238
20	41	87	n/a	n/a	n/a	f	7	0.03000000000000001	1	f	1	0.4964970030523546
20	42	87	n/a	n/a	n/a	f	7	0.02000000000000001	0	f	1	0.6607022301504912
20	43	67	n/a	n/a	n/a	f	7	0.03000000000000001	2	f	1	0.6156524976850051
20	44	107	n/a	n/a	n/a	j	7	0.04000000000000001	1	j	1	0.5880667174515111
20	45	87	n/a	n/a	n/a	f	7	0.03000000000000001	1	f	1	0.600936318269305
20	46	87	n/a	n/a	n/a	f	7	0.02000000000000001	1	f	1	0.5745895731743076
20	47	87	n/a	n/a	n/a	f	7	0.01000000000000001	1	f	1	0.6254695561146946
20	48	87	n/a	n/a	n/a	f	7	1.040834085586084e-17	2	f	1	0.6079970509490522
20	49	107	n/a	n/a	n/a	f	7	0.01000000000000001	2	f	1	0.6436553760322568
