blockLoop_thisRepN	trialLoop_thisRepN	firstKey	readyKey_corr	readyKey_rt	targetKey	blockType	margin	outcome	trialResp_keys	trialResp_corr	trialResp_rt
0	0	f	1	0.005931762279942632	f	3	0.1	0	f	1	0.4384141331538558
0	1	n/a	n/a	n/a	f	3	0.11	1	f	1	0.4002112010493875
0	2	n/a	n/a	n/a	j	3	0.1	1	j	1	0.3948025947902352
0	3	n/a	n/a	n/a	f	3	0.09000000000000001	1	f	1	0.5182155220536515
0	4	n/a	n/a	n/a	f	3	0.08000000000000002	2	f	1	0.3622722703730687
0	5	n/a	n/a	n/a	f	3	0.09000000000000001	2	j	0	0.4471686568576843
0	6	n/a	n/a	n/a	f	3	0.08000000000000002	1	f	1	0.07416185282636434
0	7	n/a	n/a	n/a	f	3	0.07000000000000002	0	f	1	0.5043759789550677
0	8	n/a	n/a	n/a	j	3	0.08000000000000002	0	f	0	0.3870992297306657
0	9	n/a	n/a	n/a	f	3	0.09000000000000001	0	j	0	0.5911403318168595
0	10	n/a	n/a	n/a	f	3	0.08000000000000002	2	f	1	1.291007589898072
0	11	n/a	n/a	n/a	f	3	0.09000000000000001	2	f	1	0.4055864507099614
0	12	n/a	n/a	n/a	f	3	0.1	2	j	0	0.433072239975445
0	13	n/a	n/a	n/a	f	3	0.09000000000000001	1	f	1	0.755754858488217
0	14	n/a	n/a	n/a	j	3	0.08000000000000002	1	f	0	0.406547803315334
0	15	n/a	n/a	n/a	f	3	0.09000000000000001	1	f	1	0.4893524212529883
0	16	n/a	n/a	n/a	f	3	0.08000000000000002	1	j	0	0.7809122472535819
0	17	n/a	n/a	n/a	f	3	0.09000000000000001	2	f	1	0.4334574082167819
0	18	n/a	n/a	n/a	f	3	0.1	1	f	1	0.4122278233990073
0	19	n/a	n/a	n/a	f	3	0.09000000000000001	1	j	0	0.4716959776123986
0	20	n/a	n/a	n/a	j	3	0.08000000000000002	1	f	0	0.5008393304888159
0	21	n/a	n/a	n/a	f	3	0.09000000000000001	2	f	1	0.4729304547654465
0	22	n/a	n/a	n/a	f	3	0.1	2	j	0	0.3876129774143919
0	23	n/a	n/a	n/a	f	3	0.09000000000000001	1	f	1	0.4565868903882802
0	24	n/a	n/a	n/a	f	3	0.08000000000000002	1	f	1	0.4597566170850769
0	25	n/a	n/a	n/a	f	3	0.07000000000000002	1	j	0	0.4160028145415708
0	26	n/a	n/a	n/a	j	3	0.08000000000000002	1	f	0	0.4425560460658744
0	27	n/a	n/a	n/a	f	3	0.07000000000000002	1	f	1	0.4452890016837046
0	28	n/a	n/a	n/a	f	3	0.06000000000000002	1	j	0	0.4570393417961895
0	29	n/a	n/a	n/a	f	3	0.07000000000000002	2	f	1	0.4924679790856317
0	30	n/a	n/a	n/a	f	3	0.08000000000000002	2	f	1	0.4722579070366919
0	31	n/a	n/a	n/a	f	3	0.09000000000000001	2	j	0	0.4852065169252455
0	32	n/a	n/a	n/a	j	3	0.08000000000000002	2	f	0	0.4946968803415075
0	33	n/a	n/a	n/a	f	3	0.09000000000000001	2	f	1	0.4174445583485067
0	34	n/a	n/a	n/a	f	3	0.1	1	f	1	0.5083958697505295
0	35	n/a	n/a	n/a	f	3	0.09000000000000001	2	f	1	0.4562835454707965
0	36	n/a	n/a	n/a	f	3	0.1	1	f	1	0.4352558105019853
0	37	n/a	n/a	n/a	f	3	0.09000000000000001	1	j	0	0.502361471997574
0	38	n/a	n/a	n/a	j	3	0.08000000000000002	1	f	0	0.4807806456228718
0	39	n/a	n/a	n/a	f	3	0.09000000000000001	2	f	1	0.500193296931684
0	40	n/a	n/a	n/a	f	3	0.1	2	j	0	0.4868518210714683
0	41	n/a	n/a	n/a	f	3	0.11	1	f	1	0.5699181595118716
0	42	n/a	n/a	n/a	f	3	0.1	2	f	1	0.3731025973102078
0	43	n/a	n/a	n/a	f	3	0.11	1	f	1	0.5522648519836366
0	44	n/a	n/a	n/a	j	3	0.1	2	j	1	0.5170488983858377
0	45	n/a	n/a	n/a	f	3	0.11	2	f	1	0.4660393357044086
0	46	n/a	n/a	n/a	f	3	0.12	1	f	1	0.4856729382881895
0	47	n/a	n/a	n/a	f	3	0.11	1	f	1	0.7859944155206904
0	48	n/a	n/a	n/a	f	3	0.1	2	f	1	0.4854077965719625
0	49	n/a	n/a	n/a	f	3	0.11	1	f	1	0.4727211924036965
0	50	n/a	n/a	n/a	j	3	0.1	1	j	1	0.4366738910321146
0	51	n/a	n/a	n/a	f	3	0.09000000000000001	1	f	1	0.5039295144379139
0	52	n/a	n/a	n/a	f	3	0.08000000000000002	2	f	1	0.4740543136140332
0	53	n/a	n/a	n/a	f	3	0.09000000000000001	1	f	1	0.4785708462586626
0	54	n/a	n/a	n/a	f	3	0.08000000000000002	2	f	1	0.4504193516913801
0	55	n/a	n/a	n/a	f	3	0.09000000000000001	1	f	1	0.4977189258206636
0	56	n/a	n/a	n/a	j	3	0.08000000000000002	2	j	1	0.3965884526260197
0	57	n/a	n/a	n/a	f	3	0.09000000000000001	1	f	1	0.4157861395506188
0	58	n/a	n/a	n/a	f	3	0.08000000000000002	1	f	1	0.5084734165575355
0	59	n/a	n/a	n/a	f	3	0.07000000000000002	2	f	1	0.4964815977727994
0	60	n/a	n/a	n/a	f	3	0.08000000000000002	2	f	1	0.4751659132307395
0	61	n/a	n/a	n/a	f	3	0.09000000000000001	2	f	1	0.4635649645933881
0	62	n/a	n/a	n/a	j	3	0.1	1	j	1	0.490125608863309
0	63	n/a	n/a	n/a	f	3	0.09000000000000001	2	f	1	0.5332242544973269
0	64	n/a	n/a	n/a	f	3	0.1	2	f	1	0.4505904108518735
0	65	n/a	n/a	n/a	f	3	0.11	1	f	1	0.5331065088976175
0	66	n/a	n/a	n/a	f	3	0.1	2	f	1	0.4725142107345164
0	67	n/a	n/a	n/a	f	3	0.11	1	f	1	0.5223828088492155
0	68	n/a	n/a	n/a	j	3	0.1	2	j	1	0.5104166489327326
0	69	n/a	n/a	n/a	f	3	0.11	2	f	1	0.4583519360749051
0	70	n/a	n/a	n/a	f	3	0.12	1	f	1	0.4625788084231317
0	71	n/a	n/a	n/a	f	3	0.11	1	f	1	0.4831954310648143
1	0	f	1	0.002714138943701982	f	5	0.1	0	f	1	0.6273681005695835
1	1	n/a	n/a	n/a	j	5	0.11	1	j	1	0.6691002686275169
1	2	n/a	n/a	n/a	f	5	0.1	1	f	1	0.6172288525849581
1	3	n/a	n/a	n/a	f	5	0.09000000000000001	1	f	1	0.6597427611704916
1	4	n/a	n/a	n/a	f	5	0.08000000000000002	1	f	1	0.5540170683525503
1	5	n/a	n/a	n/a	j	5	0.07000000000000002	1	j	1	0.6301352679729462
1	6	n/a	n/a	n/a	f	5	0.06000000000000002	1	f	1	0.601880282512866
1	7	n/a	n/a	n/a	f	5	0.05000000000000002	1	f	1	0.6240367229329422
1	8	n/a	n/a	n/a	f	5	0.04000000000000001	1	f	1	0.6597695604432374
1	9	n/a	n/a	n/a	j	5	0.03000000000000001	2	j	1	0.6317834231304005
1	10	n/a	n/a	n/a	f	5	0.04000000000000001	2	j	0	0.6857255104696378
1	11	n/a	n/a	n/a	f	5	0.05000000000000002	2	f	1	0.07371567341033369
1	12	n/a	n/a	n/a	f	5	0.06000000000000002	0	f	1	0.9289653942687437
1	13	n/a	n/a	n/a	j	5	0.07000000000000002	0	f	0	0.6056629712693393
1	14	n/a	n/a	n/a	f	5	0.08000000000000002	0	j	0	0.6168351314263418
1	15	n/a	n/a	n/a	f	5	0.07000000000000002	1	f	1	0.5975713017396629
1	16	n/a	n/a	n/a	f	5	0.06000000000000002	1	f	1	0.6087599977618083
1	17	n/a	n/a	n/a	j	5	0.05000000000000002	1	j	1	0.5654985605506226
1	18	n/a	n/a	n/a	f	5	0.04000000000000001	1	f	1	0.6021009489195421
1	19	n/a	n/a	n/a	f	5	0.03000000000000001	1	f	1	0.6054782273713499
1	20	n/a	n/a	n/a	f	5	0.02000000000000001	2	f	1	0.6175091046607122
1	21	n/a	n/a	n/a	j	5	0.03000000000000001	1	j	1	0.5733302200678736
1	22	n/a	n/a	n/a	f	5	0.02000000000000001	1	f	1	0.6245313691906631
1	23	n/a	n/a	n/a	f	5	0.01000000000000001	2	f	1	0.6192613209132105
1	24	n/a	n/a	n/a	f	5	0.02000000000000001	2	f	1	0.6330156194744632
1	25	n/a	n/a	n/a	j	5	0.03000000000000001	2	j	1	0.5805486324243248
1	26	n/a	n/a	n/a	f	5	0.04000000000000001	1	f	1	0.6471471034456044
1	27	n/a	n/a	n/a	f	5	0.03000000000000001	2	f	1	0.5862372054252774
1	28	n/a	n/a	n/a	f	5	0.04000000000000001	1	f	1	0.6205322905443609
1	29	n/a	n/a	n/a	j	5	0.03000000000000001	2	j	1	0.6323262508958578
1	30	n/a	n/a	n/a	f	5	0.04000000000000001	2	f	1	0.651874894159846
1	31	n/a	n/a	n/a	f	5	0.05000000000000002	2	f	1	0.7206500932807103
1	32	n/a	n/a	n/a	f	5	0.06000000000000002	2	f	1	0.6199198986869305
1	33	n/a	n/a	n/a	j	5	0.07000000000000002	1	j	1	0.6081190959084779
1	34	n/a	n/a	n/a	f	5	0.06000000000000002	1	f	1	0.6309138722717762
1	35	n/a	n/a	n/a	f	5	0.05000000000000002	1	f	1	0.6443696726346388
1	36	n/a	n/a	n/a	f	5	0.04000000000000001	2	f	1	0.5841183523880318
1	37	n/a	n/a	n/a	j	5	0.05000000000000002	1	j	1	0.660806464147754
1	38	n/a	n/a	n/a	f	5	0.04000000000000001	2	f	1	0.640591545496136
1	39	n/a	n/a	n/a	f	5	0.05000000000000002	2	f	1	0.6917328238487244
1	40	n/a	n/a	n/a	f	5	0.06000000000000002	2	f	1	0.6737827286124229
1	41	n/a	n/a	n/a	j	5	0.07000000000000002	2	j	1	0.6378001447301358
1	42	n/a	n/a	n/a	f	5	0.08000000000000002	1	f	1	0.6489172809524462
1	43	n/a	n/a	n/a	f	5	0.07000000000000002	1	f	1	0.718585979193449
1	44	n/a	n/a	n/a	f	5	0.06000000000000002	2	f	1	0.6755817009834573
1	45	n/a	n/a	n/a	j	5	0.07000000000000002	2	j	1	0.6623796384083107
1	46	n/a	n/a	n/a	f	5	0.08000000000000002	1	f	1	0.6105090777855366
1	47	n/a	n/a	n/a	f	5	0.07000000000000002	1	f	1	0.6301078983815387
1	48	n/a	n/a	n/a	f	5	0.06000000000000002	1	f	1	0.7711154026910663
1	49	n/a	n/a	n/a	j	5	0.05000000000000002	2	j	1	0.6405482104746625
1	50	n/a	n/a	n/a	f	5	0.06000000000000002	1	f	1	0.6622963896952569
1	51	n/a	n/a	n/a	f	5	0.05000000000000002	2	f	1	0.6352778769796714
1	52	n/a	n/a	n/a	f	5	0.06000000000000002	1	f	1	0.6003766723442823
1	53	n/a	n/a	n/a	j	5	0.05000000000000002	1	j	1	0.607372137485072
1	54	n/a	n/a	n/a	f	5	0.04000000000000001	1	f	1	0.6200838304357603
1	55	n/a	n/a	n/a	f	5	0.03000000000000001	2	f	1	0.5860689972760156
1	56	n/a	n/a	n/a	f	5	0.04000000000000001	1	f	1	0.5751006825594231
1	57	n/a	n/a	n/a	j	5	0.03000000000000001	1	j	1	0.6037847413681448
1	58	n/a	n/a	n/a	f	5	0.02000000000000001	2	f	1	0.5986763440305367
1	59	n/a	n/a	n/a	f	5	0.03000000000000001	1	f	1	0.5620075276819989
1	60	n/a	n/a	n/a	f	5	0.02000000000000001	0	f	1	0.5987205343553796
1	61	n/a	n/a	n/a	j	5	0.03000000000000001	1	j	1	0.6438841496128589
1	62	n/a	n/a	n/a	f	5	0.02000000000000001	2	f	1	0.6492103623459116
1	63	n/a	n/a	n/a	f	5	0.03000000000000001	2	f	1	0.5819199568359181
1	64	n/a	n/a	n/a	f	5	0.04000000000000001	1	f	1	0.6028670088853687
1	65	n/a	n/a	n/a	j	5	0.03000000000000001	1	j	1	0.6538355174707249
1	66	n/a	n/a	n/a	f	5	0.02000000000000001	2	f	1	0.600465337978676
1	67	n/a	n/a	n/a	f	5	0.03000000000000001	1	f	1	0.6677751301322132
1	68	n/a	n/a	n/a	f	5	0.02000000000000001	2	f	1	0.6477999793132767
1	69	n/a	n/a	n/a	j	5	0.03000000000000001	2	j	1	0.6915349654154852
1	70	n/a	n/a	n/a	f	5	0.04000000000000001	2	f	1	0.5432617221958935
1	71	n/a	n/a	n/a	f	5	0.05000000000000002	1	f	1	0.6677001492353156
2	0	j	1	0.08924499608110636	j	4	0.1	2	j	1	0.3867140614893287
2	1	n/a	n/a	n/a	j	4	0.11	1	j	1	0.399708857294172
2	2	n/a	n/a	n/a	f	4	0.1	1	f	1	0.3975250016665086
2	3	n/a	n/a	n/a	j	4	0.09000000000000001	1	j	1	0.3804991962388158
2	4	n/a	n/a	n/a	j	4	0.08000000000000002	1	j	1	0.4391990096773952
2	5	n/a	n/a	n/a	j	4	0.07000000000000002	1	j	1	0.425993240904063
2	6	n/a	n/a	n/a	j	4	0.06000000000000002	1	j	1	0.3823420738335699
2	7	n/a	n/a	n/a	j	4	0.05000000000000002	1	j	1	0.4240488681243733
2	8	n/a	n/a	n/a	f	4	0.04000000000000001	1	f	1	0.371314458665438
2	9	n/a	n/a	n/a	j	4	0.03000000000000001	1	j	1	0.4303695049602538
2	10	n/a	n/a	n/a	j	4	0.02000000000000001	2	j	1	0.4012663511093706
2	11	n/a	n/a	n/a	j	4	0.03000000000000001	1	j	1	0.4363006969215348
2	12	n/a	n/a	n/a	j	4	0.02000000000000001	2	j	1	0.4407747498480603
2	13	n/a	n/a	n/a	j	4	0.03000000000000001	2	j	1	0.4369187908014283
2	14	n/a	n/a	n/a	f	4	0.04000000000000001	2	f	1	0.4252391549525782
2	15	n/a	n/a	n/a	j	4	0.05000000000000002	1	j	1	0.4139441172592342
2	16	n/a	n/a	n/a	j	4	0.04000000000000001	1	j	1	0.4728760009165853
2	17	n/a	n/a	n/a	j	4	0.03000000000000001	2	j	1	0.38992227637209
2	18	n/a	n/a	n/a	j	4	0.04000000000000001	1	j	1	0.4273890838958323
2	19	n/a	n/a	n/a	j	4	0.03000000000000001	2	j	1	0.4323044692864642
2	20	n/a	n/a	n/a	f	4	0.04000000000000001	2	f	1	0.3727964013814926
2	21	n/a	n/a	n/a	j	4	0.05000000000000002	1	j	1	0.4009379174094647
2	22	n/a	n/a	n/a	j	4	0.04000000000000001	1	j	1	0.4362408262677491
2	23	n/a	n/a	n/a	j	4	0.03000000000000001	2	j	1	0.4550134310266003
2	24	n/a	n/a	n/a	j	4	0.04000000000000001	2	j	1	0.3862413679016754
2	25	n/a	n/a	n/a	j	4	0.05000000000000002	1	j	1	0.46044855134096
2	26	n/a	n/a	n/a	f	4	0.04000000000000001	2	f	1	0.4328036770457402
2	27	n/a	n/a	n/a	j	4	0.05000000000000002	1	j	1	0.4668165146140382
2	28	n/a	n/a	n/a	j	4	0.04000000000000001	2	j	1	0.4137197446543723
2	29	n/a	n/a	n/a	j	4	0.05000000000000002	1	j	1	0.4649910279549658
2	30	n/a	n/a	n/a	j	4	0.04000000000000001	2	j	1	0.4595955362310633
2	31	n/a	n/a	n/a	j	4	0.05000000000000002	2	j	1	0.4079419357003644
2	32	n/a	n/a	n/a	f	4	0.06000000000000002	1	f	1	0.3960712837288156
2	33	n/a	n/a	n/a	j	4	0.05000000000000002	1	j	1	0.4466648875968531
2	34	n/a	n/a	n/a	j	4	0.04000000000000001	2	j	1	0.4494021196151152
2	35	n/a	n/a	n/a	j	4	0.05000000000000002	2	j	1	0.4205672437092289
2	36	n/a	n/a	n/a	j	4	0.06000000000000002	1	j	1	0.3838203103514388
2	37	n/a	n/a	n/a	j	4	0.05000000000000002	1	j	1	0.3870367930503562
2	38	n/a	n/a	n/a	f	4	0.04000000000000001	1	f	1	0.3927427572198212
2	39	n/a	n/a	n/a	j	4	0.03000000000000001	1	j	1	0.387591595062986
2	40	n/a	n/a	n/a	j	4	0.02000000000000001	1	j	1	0.4073475049808621
2	41	n/a	n/a	n/a	j	4	0.01000000000000001	2	j	1	0.426442556316033
2	42	n/a	n/a	n/a	j	4	0.02000000000000001	2	j	1	0.3494453976163641
2	43	n/a	n/a	n/a	j	4	0.03000000000000001	0	j	1	0.384839252801612
2	44	n/a	n/a	n/a	f	4	0.04000000000000001	1	f	1	0.4534202998038381
2	45	n/a	n/a	n/a	j	4	0.03000000000000001	2	j	1	0.4515665884828195
2	46	n/a	n/a	n/a	j	4	0.04000000000000001	2	j	1	0.3908890457823873
2	47	n/a	n/a	n/a	j	4	0.05000000000000002	1	j	1	0.401919512078166
2	48	n/a	n/a	n/a	j	4	0.04000000000000001	1	j	1	0.4303846152033657
2	49	n/a	n/a	n/a	j	4	0.03000000000000001	2	j	1	0.3873370019719005
2	50	n/a	n/a	n/a	f	4	0.04000000000000001	1	f	1	0.4244850691175088
2	51	n/a	n/a	n/a	j	4	0.03000000000000001	2	j	1	0.4458033195696771
2	52	n/a	n/a	n/a	j	4	0.04000000000000001	2	j	1	0.3132675212109461
2	53	n/a	n/a	n/a	j	4	0.05000000000000002	0	j	1	0.4363035479327664
2	54	n/a	n/a	n/a	j	4	0.06000000000000002	1	j	1	0.4014003474730998
2	55	n/a	n/a	n/a	j	4	0.05000000000000002	1	f	0	0.4453996198717505
2	56	n/a	n/a	n/a	f	4	0.04000000000000001	1	j	0	0.4427045824704692
2	57	n/a	n/a	n/a	j	4	0.05000000000000002	1	f	0	0.5271681894082576
2	58	n/a	n/a	n/a	j	4	0.06000000000000002	1	f	0	0.5165553926490247
2	59	n/a	n/a	n/a	j	4	0.07000000000000002	2	j	1	0.4009270837996155
2	60	n/a	n/a	n/a	j	4	0.08000000000000002	1	j	1	0.3917192531516775
2	61	n/a	n/a	n/a	j	4	0.07000000000000002	1	j	1	0.435048543731682
2	62	n/a	n/a	n/a	f	4	0.06000000000000002	1	f	1	0.44569669268094
2	63	n/a	n/a	n/a	j	4	0.05000000000000002	2	j	1	0.4568953671259806
2	64	n/a	n/a	n/a	j	4	0.06000000000000002	2	j	1	0.4115013921400532
2	65	n/a	n/a	n/a	j	4	0.07000000000000002	1	j	1	0.4328244891948998
2	66	n/a	n/a	n/a	j	4	0.06000000000000002	1	f	0	0.4614763319259509
2	67	n/a	n/a	n/a	j	4	0.05000000000000002	1	f	0	0.4607983673922718
2	68	n/a	n/a	n/a	f	4	0.06000000000000002	1	j	0	0.4405700489878654
2	69	n/a	n/a	n/a	j	4	0.07000000000000002	1	j	1	0.4698767632944509
2	70	n/a	n/a	n/a	j	4	0.06000000000000002	2	j	1	0.4429469163296744
2	71	n/a	n/a	n/a	j	4	0.07000000000000002	2	f	0	0.5759169199736789
3	0	f	1	5.546563734766096	f	11	0.1	0	f	1	0.9487660645972937
3	1	n/a	n/a	n/a	f	11	0.11	1	f	1	0.9508290383964777
3	2	n/a	n/a	n/a	j	11	0.1	1	j	1	0.8916667950106785
3	3	n/a	n/a	n/a	f	11	0.09000000000000001	0	f	1	0.8626651362283155
3	4	n/a	n/a	n/a	f	11	0.1	0	f	1	0.9365173719124869
3	5	n/a	n/a	n/a	f	11	0.11	1	f	1	0.9964690533233806
3	6	n/a	n/a	n/a	f	11	0.1	1	j	0	1.151426148950122
3	7	n/a	n/a	n/a	f	11	0.09000000000000001	2	f	1	0.898163907811977
3	8	n/a	n/a	n/a	j	11	0.1	1	j	1	0.912513492279686
3	9	n/a	n/a	n/a	f	11	0.09000000000000001	1	f	1	0.9323212902527303
3	10	n/a	n/a	n/a	f	11	0.08000000000000002	1	f	1	0.9031890563201159
3	11	n/a	n/a	n/a	f	11	0.07000000000000002	0	f	1	0.9391146204434335
3	12	n/a	n/a	n/a	f	11	0.08000000000000002	1	f	1	0.8940847164485604
3	13	n/a	n/a	n/a	f	11	0.07000000000000002	0	f	1	0.9067251347005367
3	14	n/a	n/a	n/a	j	11	0.08000000000000002	0	j	1	1.101988334907219
3	15	n/a	n/a	n/a	f	11	0.09000000000000001	2	f	1	0.9931151530472562
3	16	n/a	n/a	n/a	f	11	0.1	1	f	1	0.9557290285592899
3	17	n/a	n/a	n/a	f	11	0.09000000000000001	1	f	1	0.9667629159521312
3	18	n/a	n/a	n/a	f	11	0.08000000000000002	1	f	1	0.9390752768376842
3	19	n/a	n/a	n/a	f	11	0.07000000000000002	1	f	1	0.9343948125606403
3	20	n/a	n/a	n/a	j	11	0.06000000000000002	1	j	1	0.961664211936295
3	21	n/a	n/a	n/a	f	11	0.05000000000000002	1	f	1	0.8685641121119261
3	22	n/a	n/a	n/a	f	11	0.04000000000000001	0	f	1	0.946163114043884
3	23	n/a	n/a	n/a	f	11	0.05000000000000002	1	f	1	1.007060182630084
3	24	n/a	n/a	n/a	f	11	0.04000000000000001	1	f	1	0.9776060723233968
3	25	n/a	n/a	n/a	f	11	0.03000000000000001	1	f	1	0.9555759305367246
3	26	n/a	n/a	n/a	j	11	0.02000000000000001	0	j	1	0.8543354094726965
3	27	n/a	n/a	n/a	f	11	0.03000000000000001	0	f	1	1.032246366259642
3	28	n/a	n/a	n/a	f	11	0.04000000000000001	2	f	1	1.059798868605867
3	29	n/a	n/a	n/a	f	11	0.05000000000000002	2	f	1	0.9112083107465878
3	30	n/a	n/a	n/a	f	11	0.06000000000000002	0	f	1	1.413173210574314
3	31	n/a	n/a	n/a	f	11	0.07000000000000002	2	f	1	0.7601573517313227
3	32	n/a	n/a	n/a	j	11	0.08000000000000002	0	j	1	0.7789735764963552
3	33	n/a	n/a	n/a	f	11	0.09000000000000001	0	f	1	0.792057893355377
3	34	n/a	n/a	n/a	f	11	0.1	0	f	1	0.7559122329112142
3	35	n/a	n/a	n/a	f	11	0.11	0	f	1	1.05063323257491
3	36	n/a	n/a	n/a	f	11	0.12	1	f	1	1.246923358063214
3	37	n/a	n/a	n/a	f	11	0.11	2	f	1	0.9956525309244171
3	38	n/a	n/a	n/a	j	11	0.12	1	j	1	0.9852070871274918
3	39	n/a	n/a	n/a	f	11	0.11	1	f	1	0.836677540326491
3	40	n/a	n/a	n/a	f	11	0.1	0	f	1	0.9145183059154078
3	41	n/a	n/a	n/a	f	11	0.11	1	f	1	1.120552247506566
3	42	n/a	n/a	n/a	f	11	0.1	2	f	1	1.02951369585935
3	43	n/a	n/a	n/a	f	11	0.11	1	f	1	0.9149305585306138
3	44	n/a	n/a	n/a	j	11	0.1	1	j	1	0.9503286902327091
3	45	n/a	n/a	n/a	f	11	0.09000000000000001	1	f	1	0.8822688034269959
3	46	n/a	n/a	n/a	f	11	0.08000000000000002	0	f	1	0.8372919278917834
3	47	n/a	n/a	n/a	f	11	0.09000000000000001	0	f	1	0.9208683078177273
3	48	n/a	n/a	n/a	f	11	0.1	1	f	1	1.040256497566588
3	49	n/a	n/a	n/a	f	11	0.09000000000000001	1	f	1	1.123512711725198
3	50	n/a	n/a	n/a	j	11	0.08000000000000002	2	j	1	0.720028008101508
3	51	n/a	n/a	n/a	f	11	0.09000000000000001	0	f	1	0.9879366214154288
3	52	n/a	n/a	n/a	f	11	0.1	1	f	1	1.001040039816871
3	53	n/a	n/a	n/a	f	11	0.09000000000000001	1	f	1	0.9718656113836914
3	54	n/a	n/a	n/a	f	11	0.08000000000000002	1	f	1	0.9288904132554308
3	55	n/a	n/a	n/a	f	11	0.07000000000000002	1	f	1	0.9647672255523503
3	56	n/a	n/a	n/a	j	11	0.06000000000000002	1	j	1	0.9242162210866809
3	57	n/a	n/a	n/a	f	11	0.05000000000000002	0	f	1	0.8564018042525277
3	58	n/a	n/a	n/a	f	11	0.06000000000000002	0	f	1	0.9716104480903596
3	59	n/a	n/a	n/a	f	11	0.07000000000000002	1	f	1	1.042216550558805
3	60	n/a	n/a	n/a	f	11	0.06000000000000002	1	f	1	1.206053613335826
3	61	n/a	n/a	n/a	f	11	0.05000000000000002	2	f	1	0.8943892017705366
3	62	n/a	n/a	n/a	j	11	0.06000000000000002	0	j	1	1.11425955046434
3	63	n/a	n/a	n/a	f	11	0.07000000000000002	2	f	1	1.230921341804788
3	64	n/a	n/a	n/a	f	11	0.08000000000000002	2	f	1	0.9410689716460183
3	65	n/a	n/a	n/a	f	11	0.09000000000000001	1	f	1	0.9890388128114864
3	66	n/a	n/a	n/a	f	11	0.08000000000000002	1	f	1	1.065975815756246
3	67	n/a	n/a	n/a	f	11	0.07000000000000002	2	f	1	0.9100767542840913
3	68	n/a	n/a	n/a	j	11	0.08000000000000002	1	j	1	1.005846232525073
3	69	n/a	n/a	n/a	f	11	0.07000000000000002	1	f	1	0.9849787229904905
3	70	n/a	n/a	n/a	f	11	0.06000000000000002	1	f	1	0.9567901657428592
3	71	n/a	n/a	n/a	f	11	0.05000000000000002	1	f	1	0.9697439073352143
4	0	j	1	1.205483130994253	j	12	0.1	1	j	1	1.00196661031805
4	1	n/a	n/a	n/a	j	12	0.09000000000000001	1	j	1	0.9958940093638375
4	2	n/a	n/a	n/a	f	12	0.08000000000000002	1	f	1	1.024237945559435
4	3	n/a	n/a	n/a	j	12	0.07000000000000002	1	j	1	1.356715412810445
4	4	n/a	n/a	n/a	j	12	0.06000000000000002	2	j	1	0.7678718356182799
4	5	n/a	n/a	n/a	j	12	0.07000000000000002	0	j	1	1.074636256904341
4	6	n/a	n/a	n/a	j	12	0.08000000000000002	2	j	1	1.093341293279082
4	7	n/a	n/a	n/a	j	12	0.09000000000000001	2	j	1	0.9955695671960711
4	8	n/a	n/a	n/a	f	12	0.1	1	f	1	0.9584283423610032
4	9	n/a	n/a	n/a	j	12	0.09000000000000001	1	j	1	0.9213914638385177
4	10	n/a	n/a	n/a	j	12	0.08000000000000002	1	j	1	0.9498021129984409
4	11	n/a	n/a	n/a	j	12	0.07000000000000002	1	j	1	0.8673036911059171
4	12	n/a	n/a	n/a	j	12	0.06000000000000002	0	j	1	0.9364087493158877
4	13	n/a	n/a	n/a	j	12	0.07000000000000002	1	j	1	1.020238867029548
4	14	n/a	n/a	n/a	f	12	0.06000000000000002	1	f	1	0.9111071006627753
4	15	n/a	n/a	n/a	j	12	0.05000000000000002	0	j	1	0.9638067282503471
4	16	n/a	n/a	n/a	j	12	0.06000000000000002	1	j	1	1.024190904339775
4	17	n/a	n/a	n/a	j	12	0.05000000000000002	1	j	1	0.9950338668422773
4	18	n/a	n/a	n/a	j	12	0.04000000000000001	1	j	1	0.9574461776064709
4	19	n/a	n/a	n/a	j	12	0.03000000000000001	1	j	1	1.009866693639196
4	20	n/a	n/a	n/a	f	12	0.02000000000000001	2	f	1	0.9668655514251441
4	21	n/a	n/a	n/a	j	12	0.03000000000000001	1	j	1	0.9307253080187365
4	22	n/a	n/a	n/a	j	12	0.02000000000000001	0	j	1	0.8908901863032952
4	23	n/a	n/a	n/a	j	12	0.03000000000000001	0	j	1	1.234384434996173
4	24	n/a	n/a	n/a	j	12	0.04000000000000001	2	j	1	1.089563166140579
4	25	n/a	n/a	n/a	j	12	0.05000000000000002	2	j	1	0.989100108970888
4	26	n/a	n/a	n/a	f	12	0.06000000000000002	1	f	1	1.042318045743741
4	27	n/a	n/a	n/a	j	12	0.05000000000000002	2	j	1	0.8180414978414774
4	28	n/a	n/a	n/a	j	12	0.06000000000000002	0	j	1	0.9753609205363318
4	29	n/a	n/a	n/a	j	12	0.07000000000000002	1	j	1	1.061026503331959
4	30	n/a	n/a	n/a	j	12	0.06000000000000002	2	j	1	0.9610951551003382
4	31	n/a	n/a	n/a	j	12	0.07000000000000002	1	j	1	0.9721162130590528
4	32	n/a	n/a	n/a	f	12	0.06000000000000002	1	f	1	0.9431792717659846
4	33	n/a	n/a	n/a	j	12	0.05000000000000002	1	j	1	0.9070780867477879
4	34	n/a	n/a	n/a	j	12	0.04000000000000001	0	j	1	0.9320108178071678
4	35	n/a	n/a	n/a	j	12	0.05000000000000002	0	j	1	1.119040654506534
4	36	n/a	n/a	n/a	j	12	0.06000000000000002	2	j	1	1.092483146348968
4	37	n/a	n/a	n/a	j	12	0.07000000000000002	2	j	1	0.9537632734281942
4	38	n/a	n/a	n/a	f	12	0.08000000000000002	1	f	1	0.9488818146055564
4	39	n/a	n/a	n/a	j	12	0.07000000000000002	1	j	1	0.866285603842698
4	40	n/a	n/a	n/a	j	12	0.06000000000000002	0	j	1	0.9586678253253922
4	41	n/a	n/a	n/a	j	12	0.07000000000000002	1	j	1	0.9487768983235583
4	42	n/a	n/a	n/a	j	12	0.06000000000000002	1	j	1	0.9222587338881567
4	43	n/a	n/a	n/a	j	12	0.05000000000000002	0	j	1	0.8966035629855469
4	44	n/a	n/a	n/a	f	12	0.06000000000000002	0	f	1	0.9880640604533255
4	45	n/a	n/a	n/a	j	12	0.07000000000000002	1	j	1	0.919564836891368
4	46	n/a	n/a	n/a	j	12	0.06000000000000002	0	j	1	0.9622637743595988
4	47	n/a	n/a	n/a	j	12	0.07000000000000002	1	j	1	0.916924538440071
4	48	n/a	n/a	n/a	j	12	0.06000000000000002	0	j	1	0.9849530642386526
4	49	n/a	n/a	n/a	j	12	0.07000000000000002	1	j	1	0.9021299148444086
4	50	n/a	n/a	n/a	f	12	0.06000000000000002	0	f	1	0.9311084806686267
4	51	n/a	n/a	n/a	j	12	0.07000000000000002	1	j	1	0.9510499897878617
4	52	n/a	n/a	n/a	j	12	0.06000000000000002	1	j	1	0.8608915376244113
4	53	n/a	n/a	n/a	j	12	0.05000000000000002	0	j	1	1.041996454470791
4	54	n/a	n/a	n/a	j	12	0.06000000000000002	1	j	1	0.8963466890854761
4	55	n/a	n/a	n/a	j	12	0.05000000000000002	0	j	1	0.8446631530532613
4	56	n/a	n/a	n/a	f	12	0.06000000000000002	0	f	1	0.9049729185644537
4	57	n/a	n/a	n/a	j	12	0.07000000000000002	0	j	1	0.9007708496646956
4	58	n/a	n/a	n/a	j	12	0.08000000000000002	0	j	1	0.9217455564066768
4	59	n/a	n/a	n/a	j	12	0.09000000000000001	1	j	1	0.9495965568348765
4	60	n/a	n/a	n/a	j	12	0.08000000000000002	1	j	1	0.971607597079128
4	61	n/a	n/a	n/a	j	12	0.07000000000000002	1	j	1	0.8865832012379542
4	62	n/a	n/a	n/a	f	12	0.06000000000000002	0	f	1	0.931194580392912
4	63	n/a	n/a	n/a	j	12	0.07000000000000002	1	j	1	0.9665060420520604
4	64	n/a	n/a	n/a	j	12	0.06000000000000002	1	j	1	0.9693530370714143
4	65	n/a	n/a	n/a	j	12	0.05000000000000002	1	j	1	0.8793722013942897
4	66	n/a	n/a	n/a	j	12	0.04000000000000001	0	j	1	0.9712007612688467
4	67	n/a	n/a	n/a	j	12	0.05000000000000002	1	j	1	0.9359699825290591
4	68	n/a	n/a	n/a	f	12	0.04000000000000001	0	f	1	0.8932208676123992
4	69	n/a	n/a	n/a	j	12	0.05000000000000002	0	j	1	0.8821216926444322
4	70	n/a	n/a	n/a	j	12	0.06000000000000002	0	j	1	0.8057856776285917
4	71	n/a	n/a	n/a	j	12	0.07000000000000002	0	j	1	1.072871496318839
5	0	j	1	0.7150946612237021	j	6	0.1	2	j	1	0.6064515539910644
5	1	n/a	n/a	n/a	f	6	0.11	1	f	1	0.6317931164521724
5	2	n/a	n/a	n/a	j	6	0.1	1	j	1	1.05768799840007
5	3	n/a	n/a	n/a	j	6	0.09000000000000001	2	j	1	0.5517579467268661
5	4	n/a	n/a	n/a	j	6	0.1	1	j	1	0.6272725925082341
5	5	n/a	n/a	n/a	f	6	0.09000000000000001	1	f	1	0.6082108977716416
5	6	n/a	n/a	n/a	j	6	0.08000000000000002	1	j	1	0.6101452920120209
5	7	n/a	n/a	n/a	j	6	0.07000000000000002	1	j	1	0.6166791825089604
5	8	n/a	n/a	n/a	j	6	0.06000000000000002	1	j	1	0.6486681046662852
5	9	n/a	n/a	n/a	f	6	0.05000000000000002	2	f	1	0.6283967364579439
5	10	n/a	n/a	n/a	j	6	0.06000000000000002	1	j	1	0.6028815489262342
5	11	n/a	n/a	n/a	j	6	0.05000000000000002	1	j	1	0.6464027109323069
5	12	n/a	n/a	n/a	j	6	0.04000000000000001	2	j	1	0.6049513650359586
5	13	n/a	n/a	n/a	f	6	0.05000000000000002	1	f	1	0.6592250220710412
5	14	n/a	n/a	n/a	j	6	0.04000000000000001	2	j	1	0.726332109188661
5	15	n/a	n/a	n/a	j	6	0.05000000000000002	2	j	1	0.5919642668450251
5	16	n/a	n/a	n/a	j	6	0.06000000000000002	1	j	1	0.6212829552823678
5	17	n/a	n/a	n/a	f	6	0.05000000000000002	1	f	1	0.6500873257173225
5	18	n/a	n/a	n/a	j	6	0.04000000000000001	2	j	1	0.650041994987987
5	19	n/a	n/a	n/a	j	6	0.05000000000000002	2	j	1	0.5590544760925695
5	20	n/a	n/a	n/a	j	6	0.06000000000000002	1	j	1	0.6175225041806698
5	21	n/a	n/a	n/a	f	6	0.05000000000000002	1	f	1	0.6455268879653886
5	22	n/a	n/a	n/a	j	6	0.04000000000000001	2	j	1	0.537513563525863
5	23	n/a	n/a	n/a	j	6	0.05000000000000002	0	j	1	0.6538720100652426
5	24	n/a	n/a	n/a	j	6	0.06000000000000002	2	j	1	0.6217921413481236
5	25	n/a	n/a	n/a	f	6	0.07000000000000002	1	f	1	0.6640118282521144
5	26	n/a	n/a	n/a	j	6	0.06000000000000002	2	j	1	0.6187643939629197
5	27	n/a	n/a	n/a	j	6	0.07000000000000002	1	j	1	0.6137036080472171
5	28	n/a	n/a	n/a	j	6	0.06000000000000002	1	j	1	0.6417094172211364
5	29	n/a	n/a	n/a	f	6	0.05000000000000002	2	f	1	0.6206945116864517
5	30	n/a	n/a	n/a	j	6	0.06000000000000002	1	j	1	0.5903928031912073
5	31	n/a	n/a	n/a	j	6	0.05000000000000002	1	j	1	0.6533910486614332
5	32	n/a	n/a	n/a	j	6	0.04000000000000001	2	j	1	0.6093090976355597
5	33	n/a	n/a	n/a	f	6	0.05000000000000002	1	f	1	0.6454738596221432
5	34	n/a	n/a	n/a	j	6	0.04000000000000001	2	j	1	0.5785309893544763
5	35	n/a	n/a	n/a	j	6	0.05000000000000002	1	j	1	0.6212336331373081
5	36	n/a	n/a	n/a	j	6	0.04000000000000001	1	j	1	0.5765361542580649
5	37	n/a	n/a	n/a	f	6	0.03000000000000001	1	f	1	0.6591115528717637
5	38	n/a	n/a	n/a	j	6	0.02000000000000001	2	j	1	0.5310874403221533
5	39	n/a	n/a	n/a	j	6	0.03000000000000001	0	j	1	0.5921453044284135
5	40	n/a	n/a	n/a	j	6	0.04000000000000001	1	j	1	0.6772395495790988
5	41	n/a	n/a	n/a	f	6	0.03000000000000001	2	f	1	0.6811690640170127
5	42	n/a	n/a	n/a	j	6	0.04000000000000001	2	j	1	0.564244981855154
5	43	n/a	n/a	n/a	j	6	0.05000000000000002	1	j	1	0.6231152842519805
5	44	n/a	n/a	n/a	j	6	0.04000000000000001	1	j	1	0.68415404681582
5	45	n/a	n/a	n/a	f	6	0.03000000000000001	2	f	1	0.5595305907772854
5	46	n/a	n/a	n/a	j	6	0.04000000000000001	1	j	1	0.5782652774360031
5	47	n/a	n/a	n/a	j	6	0.03000000000000001	1	j	1	0.6389833040302619
5	48	n/a	n/a	n/a	j	6	0.02000000000000001	2	j	1	0.6504770555766299
5	49	n/a	n/a	n/a	f	6	0.03000000000000001	2	f	1	0.5527298479573801
5	50	n/a	n/a	n/a	j	6	0.04000000000000001	1	j	1	0.710910553811118
5	51	n/a	n/a	n/a	j	6	0.03000000000000001	2	j	1	0.5958855134667829
5	52	n/a	n/a	n/a	j	6	0.04000000000000001	1	j	1	0.5989255202002823
5	53	n/a	n/a	n/a	f	6	0.03000000000000001	1	f	1	0.6586833347100765
5	54	n/a	n/a	n/a	j	6	0.02000000000000001	2	j	1	0.5187093127751723
5	55	n/a	n/a	n/a	j	6	0.03000000000000001	0	j	1	0.5947225962299854
5	56	n/a	n/a	n/a	j	6	0.04000000000000001	1	j	1	0.6478453100426123
5	57	n/a	n/a	n/a	f	6	0.03000000000000001	2	f	1	0.5896438490599394
5	58	n/a	n/a	n/a	j	6	0.04000000000000001	1	j	1	0.6013574115931988
5	59	n/a	n/a	n/a	j	6	0.03000000000000001	1	j	1	0.6046046849805862
5	60	n/a	n/a	n/a	j	6	0.02000000000000001	2	j	1	0.6172987018944696
5	61	n/a	n/a	n/a	f	6	0.03000000000000001	1	f	1	0.5744962734170258
5	62	n/a	n/a	n/a	j	6	0.02000000000000001	1	j	1	0.6261133814696223
5	63	n/a	n/a	n/a	j	6	0.01000000000000001	2	j	1	0.6134119521593675
5	64	n/a	n/a	n/a	j	6	0.02000000000000001	2	j	1	0.6091360428836197
5	65	n/a	n/a	n/a	f	6	0.03000000000000001	1	f	1	0.6118718492798507
5	66	n/a	n/a	n/a	j	6	0.02000000000000001	2	j	1	0.624945332412608
5	67	n/a	n/a	n/a	j	6	0.03000000000000001	2	j	1	0.5502936800476164
5	68	n/a	n/a	n/a	j	6	0.04000000000000001	1	j	1	0.609203040949069
5	69	n/a	n/a	n/a	f	6	0.03000000000000001	1	f	1	0.6194956718245521
5	70	n/a	n/a	n/a	j	6	0.02000000000000001	2	j	1	0.5912689113756642
5	71	n/a	n/a	n/a	j	6	0.03000000000000001	1	j	1	0.5138714740751311
6	0	j	1	0.05387109785806388	j	2	0.1	2	j	1	0.2872080804081634
6	1	n/a	n/a	n/a	f	2	0.11	2	j	0	0.1162632235791534
6	2	n/a	n/a	n/a	j	2	0.1	2	f	0	0.4171913906466216
6	3	n/a	n/a	n/a	j	2	0.11	1	j	1	0.4142411900684237
6	4	n/a	n/a	n/a	j	2	0.1	1	j	1	0.4602039367891848
6	5	n/a	n/a	n/a	f	2	0.09000000000000001	1	f	1	0.3868893971666694
6	6	n/a	n/a	n/a	j	2	0.08000000000000002	1	j	1	0.430174782522954
6	7	n/a	n/a	n/a	j	2	0.07000000000000002	1	j	1	0.4586530001834035
6	8	n/a	n/a	n/a	j	2	0.06000000000000002	2	j	1	0.4616163154132664
6	9	n/a	n/a	n/a	f	2	0.07000000000000002	2	f	1	0.4731534018646926
6	10	n/a	n/a	n/a	j	2	0.08000000000000002	2	j	1	0.4219308703904971
6	11	n/a	n/a	n/a	j	2	0.09000000000000001	1	j	1	0.4571719127707183
6	12	n/a	n/a	n/a	j	2	0.08000000000000002	1	j	1	0.3885592197766528
6	13	n/a	n/a	n/a	f	2	0.07000000000000002	1	f	1	0.4656305041862652
6	14	n/a	n/a	n/a	j	2	0.06000000000000002	2	j	1	0.4077477835817263
6	15	n/a	n/a	n/a	j	2	0.07000000000000002	1	j	1	0.4369478708831593
6	16	n/a	n/a	n/a	j	2	0.06000000000000002	1	j	1	0.3958911014487967
6	17	n/a	n/a	n/a	f	2	0.05000000000000002	1	f	1	0.3768619078909978
6	18	n/a	n/a	n/a	j	2	0.04000000000000001	1	j	1	0.4124601788353175
6	19	n/a	n/a	n/a	j	2	0.03000000000000001	1	j	1	0.3925574430031702
6	20	n/a	n/a	n/a	j	2	0.02000000000000001	1	j	1	0.4107401787769049
6	21	n/a	n/a	n/a	f	2	0.01000000000000001	2	f	1	0.3490579486824572
6	22	n/a	n/a	n/a	j	2	0.02000000000000001	0	j	1	0.3994382986566052
6	23	n/a	n/a	n/a	j	2	0.03000000000000001	1	j	1	0.4507312495261431
6	24	n/a	n/a	n/a	j	2	0.02000000000000001	2	j	1	0.3854972604895011
6	25	n/a	n/a	n/a	f	2	0.03000000000000001	1	f	1	0.3758652030956
6	26	n/a	n/a	n/a	j	2	0.02000000000000001	1	j	1	0.4026567771798
6	27	n/a	n/a	n/a	j	2	0.01000000000000001	2	j	1	0.445649936562404
6	28	n/a	n/a	n/a	j	2	0.02000000000000001	2	j	1	0.4015488837612793
6	29	n/a	n/a	n/a	f	2	0.03000000000000001	1	f	1	0.3344429371645674
6	30	n/a	n/a	n/a	j	2	0.02000000000000001	0	j	1	0.4185772552154958
6	31	n/a	n/a	n/a	j	2	0.03000000000000001	2	j	1	0.4214978056261316
6	32	n/a	n/a	n/a	j	2	0.04000000000000001	1	j	1	0.313488187501207
6	33	n/a	n/a	n/a	f	2	0.03000000000000001	0	f	1	0.4064942048862576
6	34	n/a	n/a	n/a	j	2	0.04000000000000001	1	j	1	0.3315163997467607
6	35	n/a	n/a	n/a	j	2	0.03000000000000001	0	j	1	0.4125636696116999
6	36	n/a	n/a	n/a	j	2	0.04000000000000001	1	j	1	0.3606212640879676
6	37	n/a	n/a	n/a	f	2	0.03000000000000001	1	f	1	0.3393278172006831
6	38	n/a	n/a	n/a	j	2	0.02000000000000001	0	j	1	0.4263986512087286
6	39	n/a	n/a	n/a	j	2	0.03000000000000001	2	j	1	0.4060058308532462
6	40	n/a	n/a	n/a	j	2	0.04000000000000001	1	j	1	0.3803646296728402
6	41	n/a	n/a	n/a	f	2	0.03000000000000001	1	f	1	0.3862159941345453
6	42	n/a	n/a	n/a	j	2	0.02000000000000001	1	j	1	0.3412733303848654
6	43	n/a	n/a	n/a	j	2	0.01000000000000001	0	j	1	0.3524070022394881
6	44	n/a	n/a	n/a	j	2	0.02000000000000001	0	j	1	0.4612294365651906
6	45	n/a	n/a	n/a	f	2	0.03000000000000001	2	f	1	0.4331420891685411
6	46	n/a	n/a	n/a	j	2	0.04000000000000001	2	j	1	0.4041335880756378
6	47	n/a	n/a	n/a	j	2	0.05000000000000002	1	j	1	0.408276071306318
6	48	n/a	n/a	n/a	j	2	0.04000000000000001	1	j	1	0.3443643697537482
6	49	n/a	n/a	n/a	f	2	0.03000000000000001	0	f	1	0.436176679097116
6	50	n/a	n/a	n/a	j	2	0.04000000000000001	2	j	1	0.32048165705055
6	51	n/a	n/a	n/a	j	2	0.05000000000000002	0	j	1	0.3960898151854053
6	52	n/a	n/a	n/a	j	2	0.06000000000000002	1	j	1	0.3590529365465045
6	53	n/a	n/a	n/a	f	2	0.05000000000000002	1	f	1	0.3470214890548959
6	54	n/a	n/a	n/a	j	2	0.04000000000000001	1	j	1	0.3691109312931076
6	55	n/a	n/a	n/a	j	2	0.03000000000000001	1	j	1	0.3480392912169918
6	56	n/a	n/a	n/a	j	2	0.02000000000000001	0	j	1	0.3949209108250216
6	57	n/a	n/a	n/a	f	2	0.03000000000000001	1	f	1	0.3536568746203557
6	58	n/a	n/a	n/a	j	2	0.02000000000000001	0	j	1	0.396985310013406
6	59	n/a	n/a	n/a	j	2	0.03000000000000001	1	j	1	0.2988372538238764
6	60	n/a	n/a	n/a	j	2	0.02000000000000001	0	j	1	0.4087134125875309
6	61	n/a	n/a	n/a	f	2	0.03000000000000001	1	f	1	0.3904782187892124
6	62	n/a	n/a	n/a	j	2	0.02000000000000001	1	j	1	0.3393836966715753
6	63	n/a	n/a	n/a	j	2	0.01000000000000001	0	j	1	0.3450970732374117
6	64	n/a	n/a	n/a	j	2	0.02000000000000001	0	j	1	0.3829470531782135
6	65	n/a	n/a	n/a	f	2	0.03000000000000001	1	f	1	0.3572864654706791
6	66	n/a	n/a	n/a	j	2	0.02000000000000001	0	j	1	0.3856885615969077
6	67	n/a	n/a	n/a	j	2	0.03000000000000001	1	j	1	0.3119366808095947
6	68	n/a	n/a	n/a	j	2	0.02000000000000001	0	j	1	0.3625245826551691
6	69	n/a	n/a	n/a	f	2	0.03000000000000001	1	f	1	0.3737680175108835
6	70	n/a	n/a	n/a	j	2	0.02000000000000001	1	j	1	0.3043339553987607
6	71	n/a	n/a	n/a	j	2	0.01000000000000001	0	j	1	0.4356680630007759
7	0	f	1	0.5422978036804125	f	7	0.1	0	f	1	0.5786025491543114
7	1	n/a	n/a	n/a	f	7	0.11	1	f	1	0.5079727832926437
7	2	n/a	n/a	n/a	j	7	0.1	1	j	1	0.5436001343186945
7	3	n/a	n/a	n/a	f	7	0.09000000000000001	1	f	1	0.5080711423652247
7	4	n/a	n/a	n/a	f	7	0.08000000000000002	1	f	1	0.5534910613205284
7	5	n/a	n/a	n/a	f	7	0.07000000000000002	1	j	0	0.5181975607993081
7	6	n/a	n/a	n/a	f	7	0.06000000000000002	0	f	1	0.5549875440774485
7	7	n/a	n/a	n/a	f	7	0.07000000000000002	1	f	1	0.5743882211390883
7	8	n/a	n/a	n/a	j	7	0.06000000000000002	1	j	1	0.4970247106393799
7	9	n/a	n/a	n/a	f	7	0.05000000000000002	0	f	1	0.5170805442612618
7	10	n/a	n/a	n/a	f	7	0.06000000000000002	0	f	1	0.5683566743973643
7	11	n/a	n/a	n/a	f	7	0.07000000000000002	1	f	1	0.531280167051591
7	12	n/a	n/a	n/a	f	7	0.06000000000000002	1	f	1	0.5897213958669454
7	13	n/a	n/a	n/a	f	7	0.05000000000000002	1	f	1	0.514092140365392
7	14	n/a	n/a	n/a	j	7	0.04000000000000001	0	j	1	0.4768582585966215
7	15	n/a	n/a	n/a	f	7	0.05000000000000002	0	f	1	0.5970829278230667
7	16	n/a	n/a	n/a	f	7	0.06000000000000002	1	f	1	0.6101481429068372
7	17	n/a	n/a	n/a	f	7	0.05000000000000002	1	f	1	0.5019469385733828
7	18	n/a	n/a	n/a	f	7	0.04000000000000001	0	f	1	0.4961488875560462
7	19	n/a	n/a	n/a	f	7	0.05000000000000002	0	f	1	0.5247819138457999
7	20	n/a	n/a	n/a	j	7	0.06000000000000002	1	j	1	0.4340683745685965
7	21	n/a	n/a	n/a	f	7	0.05000000000000002	0	f	1	0.4854608249152079
7	22	n/a	n/a	n/a	f	7	0.06000000000000002	0	f	1	0.5068483543582261
7	23	n/a	n/a	n/a	f	7	0.07000000000000002	0	f	1	0.496818014071323
7	24	n/a	n/a	n/a	f	7	0.08000000000000002	0	f	1	0.5078929557930678
7	25	n/a	n/a	n/a	f	7	0.09000000000000001	1	f	1	0.4817884693620726
7	26	n/a	n/a	n/a	j	7	0.08000000000000002	0	j	1	0.4878975629108027
7	27	n/a	n/a	n/a	f	7	0.09000000000000001	0	f	1	0.4746715520741418
7	28	n/a	n/a	n/a	f	7	0.1	0	f	1	0.4956399865914136
7	29	n/a	n/a	n/a	f	7	0.11	1	f	1	0.4666987687814981
7	30	n/a	n/a	n/a	f	7	0.1	0	f	1	0.5129945108201355
7	31	n/a	n/a	n/a	f	7	0.11	1	f	1	0.4603251037187874
7	32	n/a	n/a	n/a	j	7	0.1	0	j	1	0.5115949615137652
7	33	n/a	n/a	n/a	f	7	0.11	1	f	1	0.426070787711069
7	34	n/a	n/a	n/a	f	7	0.1	0	f	1	0.4301049334462732
7	35	n/a	n/a	n/a	f	7	0.11	0	f	1	0.5215608694124967
7	36	n/a	n/a	n/a	f	7	0.12	1	f	1	0.5687526763649657
7	37	n/a	n/a	n/a	f	7	0.11	1	f	1	0.5019515000749379
7	38	n/a	n/a	n/a	j	7	0.1	1	j	1	0.4334759396733716
7	39	n/a	n/a	n/a	f	7	0.09000000000000001	0	f	1	0.4714034664211795
7	40	n/a	n/a	n/a	f	7	0.1	0	f	1	0.5083753425860777
7	41	n/a	n/a	n/a	f	7	0.11	1	f	1	0.4973032519919798
7	42	n/a	n/a	n/a	f	7	0.1	1	f	1	0.4849428007146344
7	43	n/a	n/a	n/a	f	7	0.09000000000000001	0	f	1	0.4913099084515125
7	44	n/a	n/a	n/a	j	7	0.1	1	j	1	0.4981323188403621
7	45	n/a	n/a	n/a	f	7	0.09000000000000001	0	f	1	0.4804219916695729
7	46	n/a	n/a	n/a	f	7	0.1	0	f	1	0.5023517786758021
7	47	n/a	n/a	n/a	f	7	0.11	1	f	1	0.4913167508784682
7	48	n/a	n/a	n/a	f	7	0.1	1	f	1	0.5357784532243386
7	49	n/a	n/a	n/a	f	7	0.09000000000000001	1	f	1	0.4590775120304897
7	50	n/a	n/a	n/a	j	7	0.08000000000000002	0	j	1	0.4466506326571107
7	51	n/a	n/a	n/a	f	7	0.09000000000000001	0	f	1	0.530759576940909
7	52	n/a	n/a	n/a	f	7	0.1	1	f	1	0.5587656712159514
7	53	n/a	n/a	n/a	f	7	0.09000000000000001	1	f	1	0.4920317782089114
7	54	n/a	n/a	n/a	f	7	0.08000000000000002	0	f	1	0.487665492692031
7	55	n/a	n/a	n/a	f	7	0.09000000000000001	0	f	1	0.4988282446283847
7	56	n/a	n/a	n/a	j	7	0.1	1	j	1	0.5118603883311152
7	57	n/a	n/a	n/a	f	7	0.09000000000000001	1	f	1	0.5065264779841527
7	58	n/a	n/a	n/a	f	7	0.08000000000000002	1	f	1	0.5276380319846794
7	59	n/a	n/a	n/a	f	7	0.07000000000000002	1	f	1	0.47579826193396
7	60	n/a	n/a	n/a	f	7	0.06000000000000002	0	f	1	0.5206109207356349
7	61	n/a	n/a	n/a	f	7	0.07000000000000002	1	f	1	0.4917746192077175
7	62	n/a	n/a	n/a	j	7	0.06000000000000002	0	j	1	0.5027543378528208
7	63	n/a	n/a	n/a	f	7	0.07000000000000002	0	f	1	0.48191277240403
7	64	n/a	n/a	n/a	f	7	0.08000000000000002	0	f	1	0.4463487133616582
7	65	n/a	n/a	n/a	f	7	0.09000000000000001	0	f	1	0.529368010465987
7	66	n/a	n/a	n/a	f	7	0.1	1	f	1	0.5335620965342969
7	67	n/a	n/a	n/a	f	7	0.09000000000000001	1	f	1	0.4647620938485488
7	68	n/a	n/a	n/a	j	7	0.08000000000000002	1	f	0	0.541540011530742
7	69	n/a	n/a	n/a	f	7	0.09000000000000001	1	j	0	0.00100297702010721
7	70	n/a	n/a	n/a	f	7	0.08000000000000002	0	f	1	0.5011894315248355
7	71	n/a	n/a	n/a	f	7	0.09000000000000001	1	f	1	0.5228221457218751
8	0	j	1	0.7230175524018705	j	8	0.1	1	j	1	0.5664681809721515
8	1	n/a	n/a	n/a	j	8	0.09000000000000001	1	j	1	0.5532205026829615
8	2	n/a	n/a	n/a	f	8	0.08000000000000002	1	f	1	0.5914890074636787
8	3	n/a	n/a	n/a	j	8	0.07000000000000002	1	j	1	0.5301340704318136
8	4	n/a	n/a	n/a	j	8	0.06000000000000002	1	j	1	0.5269817349035293
8	5	n/a	n/a	n/a	j	8	0.05000000000000002	0	j	1	0.5462851932970807
8	6	n/a	n/a	n/a	j	8	0.06000000000000002	1	j	1	0.6058699528221041
8	7	n/a	n/a	n/a	j	8	0.05000000000000002	1	j	1	0.5604642888065428
8	8	n/a	n/a	n/a	f	8	0.04000000000000001	1	f	1	0.5227497307350859
8	9	n/a	n/a	n/a	j	8	0.03000000000000001	0	j	1	0.58223356527742
8	10	n/a	n/a	n/a	j	8	0.04000000000000001	1	j	1	0.5341377106960863
8	11	n/a	n/a	n/a	j	8	0.03000000000000001	0	j	1	0.5304910138947889
8	12	n/a	n/a	n/a	j	8	0.04000000000000001	0	j	1	0.5808745002141222
8	13	n/a	n/a	n/a	j	8	0.05000000000000002	1	j	1	0.5346508881775662
8	14	n/a	n/a	n/a	f	8	0.04000000000000001	0	f	1	0.5468764877878129
8	15	n/a	n/a	n/a	j	8	0.05000000000000002	1	j	1	0.5760315296938643
8	16	n/a	n/a	n/a	j	8	0.04000000000000001	1	j	1	0.5099114540498704
8	17	n/a	n/a	n/a	j	8	0.03000000000000001	0	j	1	0.4999147554626688
8	18	n/a	n/a	n/a	j	8	0.04000000000000001	0	j	1	0.606419337913394
8	19	n/a	n/a	n/a	j	8	0.05000000000000002	1	j	1	0.5788654100615531
8	20	n/a	n/a	n/a	f	8	0.04000000000000001	1	f	1	0.5428628692170605
8	21	n/a	n/a	n/a	j	8	0.03000000000000001	0	j	1	0.5082054238300771
8	22	n/a	n/a	n/a	j	8	0.04000000000000001	0	j	1	0.5448500066995621
8	23	n/a	n/a	n/a	j	8	0.05000000000000002	1	j	1	1.131653418182395
8	24	n/a	n/a	n/a	j	8	0.04000000000000001	2	j	1	0.5275793016189709
8	25	n/a	n/a	n/a	j	8	0.05000000000000002	0	j	1	0.5076332308817655
8	26	n/a	n/a	n/a	f	8	0.06000000000000002	0	f	1	0.5356245000148192
8	27	n/a	n/a	n/a	j	8	0.07000000000000002	1	j	1	0.5805531940422952
8	28	n/a	n/a	n/a	j	8	0.06000000000000002	1	j	1	0.4984353786567226
8	29	n/a	n/a	n/a	j	8	0.05000000000000002	0	j	1	0.5501779300393537
8	30	n/a	n/a	n/a	j	8	0.06000000000000002	1	j	1	0.6253912266111001
8	31	n/a	n/a	n/a	j	8	0.05000000000000002	1	j	1	0.5424546080175787
8	32	n/a	n/a	n/a	f	8	0.04000000000000001	0	f	1	0.5210810484131798
8	33	n/a	n/a	n/a	j	8	0.05000000000000002	0	j	1	0.5482954237377271
8	34	n/a	n/a	n/a	j	8	0.06000000000000002	1	j	1	0.5180290674325079
8	35	n/a	n/a	n/a	j	8	0.05000000000000002	0	j	1	0.5470703549217433
8	36	n/a	n/a	n/a	j	8	0.06000000000000002	1	j	1	0.6061100058723241
8	37	n/a	n/a	n/a	j	8	0.05000000000000002	1	j	1	0.5847085065906867
8	38	n/a	n/a	n/a	f	8	0.04000000000000001	1	f	1	0.5237045261310413
8	39	n/a	n/a	n/a	j	8	0.03000000000000001	0	j	1	0.5751953353174031
8	40	n/a	n/a	n/a	j	8	0.04000000000000001	1	j	1	0.5320376741001382
8	41	n/a	n/a	n/a	j	8	0.03000000000000001	0	j	1	0.5749672563979402
8	42	n/a	n/a	n/a	j	8	0.04000000000000001	1	j	1	0.5307036975864321
8	43	n/a	n/a	n/a	j	8	0.03000000000000001	0	j	1	0.5761658110423014
8	44	n/a	n/a	n/a	f	8	0.04000000000000001	1	f	1	0.5336134142708033
8	45	n/a	n/a	n/a	j	8	0.03000000000000001	0	j	1	0.5488659061957151
8	46	n/a	n/a	n/a	j	8	0.04000000000000001	1	j	1	0.5130358500173315
8	47	n/a	n/a	n/a	j	8	0.03000000000000001	0	j	1	0.5158420758089051
8	48	n/a	n/a	n/a	j	8	0.04000000000000001	0	j	1	0.608159294934012
8	49	n/a	n/a	n/a	j	8	0.05000000000000002	1	j	1	0.5238527773180977
8	50	n/a	n/a	n/a	f	8	0.04000000000000001	0	f	1	0.5240908346604556
8	51	n/a	n/a	n/a	j	8	0.05000000000000002	0	j	1	0.5508313761092722
8	52	n/a	n/a	n/a	j	8	0.06000000000000002	1	j	1	0.501651291269809
8	53	n/a	n/a	n/a	j	8	0.05000000000000002	0	j	1	0.516796015901491
8	54	n/a	n/a	n/a	j	8	0.06000000000000002	0	j	1	0.6106302447151393
8	55	n/a	n/a	n/a	j	8	0.07000000000000002	1	j	1	0.5181727572344244
8	56	n/a	n/a	n/a	f	8	0.06000000000000002	0	f	1	0.491812537307851
8	57	n/a	n/a	n/a	j	8	0.07000000000000002	0	j	1	0.5442262109136209
8	58	n/a	n/a	n/a	j	8	0.08000000000000002	1	j	1	0.5085666438098997
8	59	n/a	n/a	n/a	j	8	0.07000000000000002	0	j	1	0.5366967560257763
8	60	n/a	n/a	n/a	j	8	0.08000000000000002	1	j	1	0.564413475105539
8	61	n/a	n/a	n/a	j	8	0.07000000000000002	1	j	1	0.5211714246543124
8	62	n/a	n/a	n/a	f	8	0.06000000000000002	0	f	1	0.5002141090808436
8	63	n/a	n/a	n/a	j	8	0.07000000000000002	0	j	1	0.553410948603414
8	64	n/a	n/a	n/a	j	8	0.08000000000000002	1	j	1	0.4941569034708664
8	65	n/a	n/a	n/a	j	8	0.07000000000000002	0	j	1	0.5866007062140852
8	66	n/a	n/a	n/a	j	8	0.08000000000000002	1	j	1	0.5412985330913216
8	67	n/a	n/a	n/a	j	8	0.07000000000000002	1	j	1	0.4841513668652624
8	68	n/a	n/a	n/a	f	8	0.06000000000000002	0	f	1	0.5509950227569789
8	69	n/a	n/a	n/a	j	8	0.07000000000000002	1	j	1	0.5559431946603581
8	70	n/a	n/a	n/a	j	8	0.06000000000000002	1	j	1	0.4488903676392511
8	71	n/a	n/a	n/a	j	8	0.05000000000000002	0	j	1	0.5581259098835289
9	0	f	1	0.004042983753606677	f	1	0.1	2	f	1	0.4290834250859916
9	1	n/a	n/a	n/a	j	1	0.11	1	j	1	0.386422120500356
9	2	n/a	n/a	n/a	f	1	0.1	1	f	1	0.4143803181359544
9	3	n/a	n/a	n/a	f	1	0.09000000000000001	1	f	1	0.4404066875576973
9	4	n/a	n/a	n/a	f	1	0.08000000000000002	1	f	1	0.4042835499858484
9	5	n/a	n/a	n/a	j	1	0.07000000000000002	1	j	1	0.3484102044021711
9	6	n/a	n/a	n/a	f	1	0.06000000000000002	1	f	1	0.4202864215476438
9	7	n/a	n/a	n/a	f	1	0.05000000000000002	1	f	1	0.4708908591419458
9	8	n/a	n/a	n/a	f	1	0.04000000000000001	2	f	1	0.3872608806705102
9	9	n/a	n/a	n/a	j	1	0.05000000000000002	1	j	1	0.326888678711839
9	10	n/a	n/a	n/a	f	1	0.04000000000000001	0	f	1	0.3781525494996458
9	11	n/a	n/a	n/a	f	1	0.05000000000000002	1	f	1	0.4852070871274918
9	12	n/a	n/a	n/a	f	1	0.04000000000000001	2	f	1	0.4371220661560073
9	13	n/a	n/a	n/a	j	1	0.05000000000000002	2	j	1	0.3355009382357821
9	14	n/a	n/a	n/a	f	1	0.06000000000000002	1	f	1	0.395969218458049
9	15	n/a	n/a	n/a	f	1	0.05000000000000002	1	f	1	0.4481573789380491
9	16	n/a	n/a	n/a	f	1	0.04000000000000001	2	f	1	0.3750253025209531
9	17	n/a	n/a	n/a	j	1	0.05000000000000002	1	j	1	0.3947889100527391
9	18	n/a	n/a	n/a	f	1	0.04000000000000001	1	f	1	0.3179625255288556
9	19	n/a	n/a	n/a	f	1	0.03000000000000001	0	f	1	0.473018835298717
9	20	n/a	n/a	n/a	f	1	0.04000000000000001	0	j	0	0.2999140713363886
9	21	n/a	n/a	n/a	j	1	0.05000000000000002	0	f	0	0.1516756102209911
9	22	n/a	n/a	n/a	f	1	0.06000000000000002	0	j	0	0.4924243590794504
9	23	n/a	n/a	n/a	f	1	0.07000000000000002	2	f	1	0.4640316710574552
9	24	n/a	n/a	n/a	f	1	0.08000000000000002	1	f	1	0.4349068497540429
9	25	n/a	n/a	n/a	j	1	0.07000000000000002	1	j	1	0.342848215252161
9	26	n/a	n/a	n/a	f	1	0.06000000000000002	1	f	1	0.4496256370330229
9	27	n/a	n/a	n/a	f	1	0.05000000000000002	2	f	1	0.4124972416320816
9	28	n/a	n/a	n/a	f	1	0.06000000000000002	1	f	1	0.4164601126685739
9	29	n/a	n/a	n/a	j	1	0.05000000000000002	1	j	1	0.3877352847484872
9	30	n/a	n/a	n/a	f	1	0.04000000000000001	1	f	1	0.4006260195747018
9	31	n/a	n/a	n/a	f	1	0.03000000000000001	1	f	1	0.4996578816790134
9	32	n/a	n/a	n/a	f	1	0.02000000000000001	2	f	1	0.4408317696070299
9	33	n/a	n/a	n/a	j	1	0.03000000000000001	2	j	1	0.4277893622638658
9	34	n/a	n/a	n/a	f	1	0.04000000000000001	2	f	1	0.4077742976369336
9	35	n/a	n/a	n/a	f	1	0.05000000000000002	1	f	1	0.4766720891930163
9	36	n/a	n/a	n/a	f	1	0.04000000000000001	2	f	1	0.3673666978720576
9	37	n/a	n/a	n/a	j	1	0.05000000000000002	1	j	1	0.4365498730912805
9	38	n/a	n/a	n/a	f	1	0.04000000000000001	2	f	1	0.4084841932635754
9	39	n/a	n/a	n/a	f	1	0.05000000000000002	1	f	1	0.4200683210510761
9	40	n/a	n/a	n/a	f	1	0.04000000000000001	1	f	1	0.3364437595009804
9	41	n/a	n/a	n/a	j	1	0.03000000000000001	0	j	1	0.3710068372311071
9	42	n/a	n/a	n/a	f	1	0.04000000000000001	1	f	1	0.3845952084520832
9	43	n/a	n/a	n/a	f	1	0.03000000000000001	1	f	1	0.3813140082638711
9	44	n/a	n/a	n/a	f	1	0.02000000000000001	1	f	1	0.3456541560590267
9	45	n/a	n/a	n/a	j	1	0.01000000000000001	0	j	1	0.3553095913957804
9	46	n/a	n/a	n/a	f	1	0.02000000000000001	0	f	1	0.3829806948779151
9	47	n/a	n/a	n/a	f	1	0.03000000000000001	1	f	1	0.4029028173536062
9	48	n/a	n/a	n/a	f	1	0.02000000000000001	1	f	1	0.3423284803284332
9	49	n/a	n/a	n/a	j	1	0.01000000000000001	0	j	1	0.4123766450211406
9	50	n/a	n/a	n/a	f	1	0.02000000000000001	2	f	1	0.3699767759535462
9	51	n/a	n/a	n/a	f	1	0.03000000000000001	1	f	1	0.4062304885592312
9	52	n/a	n/a	n/a	f	1	0.02000000000000001	2	f	1	0.3551881393650547
9	53	n/a	n/a	n/a	j	1	0.03000000000000001	0	j	1	0.366158164688386
9	54	n/a	n/a	n/a	f	1	0.04000000000000001	1	f	1	0.3462106685619801
9	55	n/a	n/a	n/a	f	1	0.03000000000000001	0	f	1	0.3949976023286581
9	56	n/a	n/a	n/a	f	1	0.04000000000000001	1	f	1	0.3762364014983177
9	57	n/a	n/a	n/a	j	1	0.03000000000000001	1	j	1	0.3721768819959834
9	58	n/a	n/a	n/a	f	1	0.02000000000000001	1	f	1	0.3848326955921948
9	59	n/a	n/a	n/a	f	1	0.01000000000000001	1	f	1	0.4371739540947601
9	60	n/a	n/a	n/a	f	1	1.040834085586084e-17	2	f	1	0.3521327374037355
9	61	n/a	n/a	n/a	j	1	0.01000000000000001	0	j	1	0.3247601322364062
9	62	n/a	n/a	n/a	f	1	0.02000000000000001	0	f	1	0.313144073355943
9	63	n/a	n/a	n/a	f	1	0.03000000000000001	0	f	1	0.4516261741518974
9	64	n/a	n/a	n/a	f	1	0.04000000000000001	2	f	1	0.3669510240433738
9	65	n/a	n/a	n/a	j	1	0.05000000000000002	1	j	1	0.3638391724089161
9	66	n/a	n/a	n/a	f	1	0.04000000000000001	1	f	1	0.3689960365882143
9	67	n/a	n/a	n/a	f	1	0.03000000000000001	1	f	1	0.4048363562906161
9	68	n/a	n/a	n/a	f	1	0.02000000000000001	2	f	1	0.4567342863883823
9	69	n/a	n/a	n/a	j	1	0.03000000000000001	2	j	1	0.3088567601516843
9	70	n/a	n/a	n/a	f	1	0.04000000000000001	0	f	1	0.3530898134922609
9	71	n/a	n/a	n/a	f	1	0.05000000000000002	1	f	1	0.5157103603705764
10	0	f	1	0.8932354076532647	f	9	0.1	0	f	1	0.8993011662969366
10	1	n/a	n/a	n/a	j	9	0.11	1	j	1	0.8926763292402029
10	2	n/a	n/a	n/a	f	9	0.1	1	f	1	0.8240938568487763
10	3	n/a	n/a	n/a	f	9	0.09000000000000001	0	f	1	0.8721155858365819
10	4	n/a	n/a	n/a	f	9	0.1	0	f	1	0.8289861492812634
10	5	n/a	n/a	n/a	j	9	0.11	0	j	1	0.8325686987955123
10	6	n/a	n/a	n/a	f	9	0.12	0	f	1	0.9398575875675306
10	7	n/a	n/a	n/a	f	9	0.13	1	f	1	0.9297536917729303
10	8	n/a	n/a	n/a	f	9	0.12	1	f	1	1.045737233711407
10	9	n/a	n/a	n/a	j	9	0.11	1	j	1	0.8358233848121017
10	10	n/a	n/a	n/a	f	9	0.1	0	f	1	0.9676715253153816
10	11	n/a	n/a	n/a	f	9	0.11	1	f	1	0.9085540424566716
10	12	n/a	n/a	n/a	f	9	0.1	1	f	1	0.9927100278437138
10	13	n/a	n/a	n/a	j	9	0.09000000000000002	1	j	1	0.9484242313774303
10	14	n/a	n/a	n/a	f	9	0.08000000000000003	1	f	1	1.041696530766785
10	15	n/a	n/a	n/a	f	9	0.07000000000000003	1	f	1	0.868349147727713
10	16	n/a	n/a	n/a	f	9	0.06000000000000003	0	f	1	0.9243467962369323
10	17	n/a	n/a	n/a	j	9	0.07000000000000003	1	j	1	0.9532891544513404
10	18	n/a	n/a	n/a	f	9	0.06000000000000003	1	f	1	1.00423171906732
10	19	n/a	n/a	n/a	f	9	0.05000000000000003	1	f	1	0.9788736208574846
10	20	n/a	n/a	n/a	f	9	0.04000000000000003	1	f	1	0.97417405503802
10	21	n/a	n/a	n/a	j	9	0.03000000000000003	1	j	1	0.9396243768278509
10	22	n/a	n/a	n/a	f	9	0.02000000000000002	0	f	1	0.881107026594691
10	23	n/a	n/a	n/a	f	9	0.03000000000000003	0	f	1	1.084669162984937
10	24	n/a	n/a	n/a	f	9	0.04000000000000003	2	f	1	1.0159367286833
10	25	n/a	n/a	n/a	j	9	0.05000000000000003	1	j	1	1.001795836375095
10	26	n/a	n/a	n/a	f	9	0.04000000000000003	1	f	1	0.9850588358240202
10	27	n/a	n/a	n/a	f	9	0.03000000000000003	1	f	1	0.8373495178529993
10	28	n/a	n/a	n/a	f	9	0.02000000000000002	0	f	1	0.945344595820643
10	29	n/a	n/a	n/a	j	9	0.03000000000000003	0	j	1	1.014092710684054
10	30	n/a	n/a	n/a	f	9	0.04000000000000003	1	f	1	0.843555259751156
10	31	n/a	n/a	n/a	f	9	0.03000000000000003	0	f	1	0.9024734587874264
10	32	n/a	n/a	n/a	f	9	0.04000000000000003	0	f	1	1.065376823418774
10	33	n/a	n/a	n/a	j	9	0.05000000000000003	2	j	1	1.022437262698077
10	34	n/a	n/a	n/a	f	9	0.06000000000000003	1	f	1	0.9468872646102682
10	35	n/a	n/a	n/a	f	9	0.05000000000000003	1	f	1	1.030292015173472
10	36	n/a	n/a	n/a	f	9	0.04000000000000003	2	f	1	1.018121439381503
10	37	n/a	n/a	n/a	j	9	0.05000000000000003	1	j	1	0.9443131090374663
10	38	n/a	n/a	n/a	f	9	0.04000000000000003	0	f	1	1.005096993409097
10	39	n/a	n/a	n/a	f	9	0.05000000000000003	1	f	1	1.119736580294557
10	40	n/a	n/a	n/a	f	9	0.04000000000000003	2	f	1	1.059940562583506
10	41	n/a	n/a	n/a	j	9	0.05000000000000003	2	j	1	1.014913509599864
10	42	n/a	n/a	n/a	f	9	0.06000000000000003	1	f	1	0.7717583001358435
10	43	n/a	n/a	n/a	f	9	0.05000000000000003	0	f	1	0.6560279258992523
10	44	n/a	n/a	n/a	f	9	0.06000000000000003	0	f	1	0.971764401299879
10	45	n/a	n/a	n/a	j	9	0.07000000000000003	1	j	1	0.7597861532121897
10	46	n/a	n/a	n/a	f	9	0.06000000000000003	0	f	1	0.8347440013894811
10	47	n/a	n/a	n/a	f	9	0.07000000000000003	0	f	1	0.7345660427818075
10	48	n/a	n/a	n/a	f	9	0.08000000000000003	0	f	1	0.8912311642197892
10	49	n/a	n/a	n/a	j	9	0.09000000000000002	0	j	1	0.9262224601116031
10	50	n/a	n/a	n/a	f	9	0.1	1	f	1	0.8993938232306391
10	51	n/a	n/a	n/a	f	9	0.09000000000000002	0	f	1	0.935427724965848
10	52	n/a	n/a	n/a	f	9	0.1	1	f	1	0.8823654520092532
10	53	n/a	n/a	n/a	j	9	0.09000000000000002	0	j	1	0.914258866221644
10	54	n/a	n/a	n/a	f	9	0.1	1	f	1	0.9731707928003743
10	55	n/a	n/a	n/a	f	9	0.09000000000000002	1	f	1	0.896336710662581
10	56	n/a	n/a	n/a	f	9	0.08000000000000003	0	f	1	0.9477630875771865
10	57	n/a	n/a	n/a	j	9	0.09000000000000002	1	j	1	1.129391160444357
10	58	n/a	n/a	n/a	f	9	0.08000000000000003	2	f	1	1.09926364722196
10	59	n/a	n/a	n/a	f	9	0.09000000000000002	2	f	1	0.8300153554882854
10	60	n/a	n/a	n/a	f	9	0.1	0	f	1	0.7940028362208977
10	61	n/a	n/a	n/a	j	9	0.11	0	j	1	0.8628709773765877
10	62	n/a	n/a	n/a	f	9	0.12	0	f	1	0.86876282596495
10	63	n/a	n/a	n/a	f	9	0.13	1	f	1	0.9208646015031263
10	64	n/a	n/a	n/a	f	9	0.12	1	f	1	0.9402162416372448
10	65	n/a	n/a	n/a	j	9	0.11	1	j	1	0.8885438245488331
10	66	n/a	n/a	n/a	f	9	0.1	1	f	1	0.9397195997880772
10	67	n/a	n/a	n/a	f	9	0.09000000000000002	1	f	1	0.9752140948548913
10	68	n/a	n/a	n/a	f	9	0.08000000000000003	1	f	1	1.016021973104216
10	69	n/a	n/a	n/a	j	9	0.07000000000000003	1	j	1	0.9399023480946198
10	70	n/a	n/a	n/a	f	9	0.06000000000000003	1	f	1	0.9689119894756004
10	71	n/a	n/a	n/a	f	9	0.05000000000000003	1	f	1	0.8778457833686844
11	0	j	1	0.400252825464122	j	10	0.1	0	j	1	0.9334659611340612
11	1	n/a	n/a	n/a	f	10	0.11	1	f	1	1.122616646694951
11	2	n/a	n/a	n/a	j	10	0.1	2	j	1	0.9425497739575803
11	3	n/a	n/a	n/a	j	10	0.11	1	j	1	0.9804088770179078
11	4	n/a	n/a	n/a	j	10	0.1	1	j	1	0.9434846123913303
11	5	n/a	n/a	n/a	f	10	0.09000000000000001	1	f	1	0.9404220829019323
11	6	n/a	n/a	n/a	j	10	0.08000000000000002	1	j	1	0.9445548726944253
11	7	n/a	n/a	n/a	j	10	0.07000000000000002	1	j	1	0.915345091954805
11	8	n/a	n/a	n/a	j	10	0.06000000000000002	0	j	1	0.9844866427592933
11	9	n/a	n/a	n/a	f	10	0.07000000000000002	1	f	1	1.060291234054603
11	10	n/a	n/a	n/a	j	10	0.06000000000000002	2	j	1	0.9670508656417951
11	11	n/a	n/a	n/a	j	10	0.07000000000000002	1	j	1	1.018079815083183
11	12	n/a	n/a	n/a	j	10	0.06000000000000002	1	j	1	0.8767715316498652
11	13	n/a	n/a	n/a	f	10	0.05000000000000002	0	f	1	0.9596995973261073
11	14	n/a	n/a	n/a	j	10	0.06000000000000002	1	j	1	0.9785172475967556
11	15	n/a	n/a	n/a	j	10	0.05000000000000002	1	j	1	0.9925746060907841
11	16	n/a	n/a	n/a	j	10	0.04000000000000001	1	j	1	0.9000062150880694
11	17	n/a	n/a	n/a	f	10	0.03000000000000001	0	f	1	0.9587322575971484
11	18	n/a	n/a	n/a	j	10	0.04000000000000001	1	j	1	0.9306819729972631
11	19	n/a	n/a	n/a	j	10	0.03000000000000001	0	j	1	0.9596103614894673
11	20	n/a	n/a	n/a	j	10	0.04000000000000001	1	j	1	1.012648971169256
11	21	n/a	n/a	n/a	f	10	0.03000000000000001	1	f	1	0.9865433444501832
11	22	n/a	n/a	n/a	j	10	0.02000000000000001	1	j	1	0.991584173287265
11	23	n/a	n/a	n/a	j	10	0.01000000000000001	1	j	1	1.019404383376241
11	24	n/a	n/a	n/a	j	10	1.040834085586084e-17	2	j	1	0.9613833897747099
11	25	n/a	n/a	n/a	f	10	0.01000000000000001	0	f	1	1.070049875066616
11	26	n/a	n/a	n/a	j	10	0.02000000000000001	2	j	1	0.9568848185008392
11	27	n/a	n/a	n/a	j	10	0.03000000000000001	1	j	1	0.9935048829065636
11	28	n/a	n/a	n/a	j	10	0.02000000000000001	1	j	1	0.9881937804166228
11	29	n/a	n/a	n/a	f	10	0.01000000000000001	1	f	1	0.9026470838580281
11	30	n/a	n/a	n/a	j	10	1.040834085586084e-17	0	j	1	1.04200814361684
11	31	n/a	n/a	n/a	j	10	0.01000000000000001	2	j	1	0.9739676435710862
11	32	n/a	n/a	n/a	j	10	0.02000000000000001	1	j	1	1.091432843008079
11	33	n/a	n/a	n/a	f	10	0.01000000000000001	2	f	1	0.8801756093744189
11	34	n/a	n/a	n/a	j	10	0.02000000000000001	0	j	1	0.9657841722946614
11	35	n/a	n/a	n/a	j	10	0.03000000000000001	1	j	1	1.001894195331261
11	36	n/a	n/a	n/a	j	10	0.02000000000000001	1	j	1	0.950795681681484
11	37	n/a	n/a	n/a	f	10	0.01000000000000001	0	f	1	0.9693518966669217
11	38	n/a	n/a	n/a	j	10	0.02000000000000001	0	j	1	1.000788867939264
11	39	n/a	n/a	n/a	j	10	0.03000000000000001	1	j	1	0.9485853121150285
11	40	n/a	n/a	n/a	j	10	0.02000000000000001	0	j	1	0.932051872019656
11	41	n/a	n/a	n/a	f	10	0.03000000000000001	0	f	1	0.9761167170945555
11	42	n/a	n/a	n/a	j	10	0.04000000000000001	1	j	1	1.015315213589929
11	43	n/a	n/a	n/a	j	10	0.03000000000000001	1	j	1	0.97116255806759
11	44	n/a	n/a	n/a	j	10	0.02000000000000001	1	j	1	1.047196938772686
11	45	n/a	n/a	n/a	f	10	0.01000000000000001	2	f	1	0.8911795613821596
11	46	n/a	n/a	n/a	j	10	0.02000000000000001	0	j	1	0.9062339096562937
11	47	n/a	n/a	n/a	j	10	0.03000000000000001	0	j	1	0.8821630318416283
11	48	n/a	n/a	n/a	j	10	0.04000000000000001	0	j	1	0.9259327999316156
11	49	n/a	n/a	n/a	f	10	0.05000000000000002	0	f	1	1.132848266512156
11	50	n/a	n/a	n/a	j	10	0.06000000000000002	2	j	1	1.112034640624188
11	51	n/a	n/a	n/a	j	10	0.07000000000000002	2	j	1	0.9006288705859333
11	52	n/a	n/a	n/a	j	10	0.08000000000000002	0	j	1	0.9845467987470329
11	53	n/a	n/a	n/a	f	10	0.09000000000000001	1	f	1	0.9158682479755953
11	54	n/a	n/a	n/a	j	10	0.08000000000000002	1	j	1	0.9097848132951185
11	55	n/a	n/a	n/a	j	10	0.07000000000000002	0	j	1	0.9716224222211167
11	56	n/a	n/a	n/a	j	10	0.08000000000000002	1	j	1	0.9597819907357916
11	57	n/a	n/a	n/a	f	10	0.07000000000000002	1	f	1	1.026378751266748
11	58	n/a	n/a	n/a	j	10	0.06000000000000002	1	j	1	0.9754319101339206
11	59	n/a	n/a	n/a	j	10	0.05000000000000002	1	j	1	0.8923176751704887
11	60	n/a	n/a	n/a	j	10	0.04000000000000001	0	j	1	1.008920736378059
11	61	n/a	n/a	n/a	f	10	0.05000000000000002	1	f	1	0.9809864868875593
11	62	n/a	n/a	n/a	j	10	0.04000000000000001	1	j	1	0.9223211704520509
11	63	n/a	n/a	n/a	j	10	0.03000000000000001	0	j	1	0.8997353714657947
11	64	n/a	n/a	n/a	j	10	0.04000000000000001	0	j	1	1.072304435190745
11	65	n/a	n/a	n/a	f	10	0.05000000000000002	2	f	1	1.132007795735262
11	66	n/a	n/a	n/a	j	10	0.06000000000000002	2	j	1	0.8401446248171851
11	67	n/a	n/a	n/a	j	10	0.07000000000000002	0	j	1	0.8118745292304084
11	68	n/a	n/a	n/a	j	10	0.08000000000000002	0	j	1	0.8389124284731224
11	69	n/a	n/a	n/a	f	10	0.09000000000000001	0	f	1	0.8198344832053408
11	70	n/a	n/a	n/a	j	10	0.1	0	j	1	0.8312746360898018
11	71	n/a	n/a	n/a	j	10	0.11	0	j	1	0.8416855830000713
12	0	f	1	0.4675666090333834	f	3	0.1	2	f	1	0.4239134462550282
12	1	n/a	n/a	n/a	f	3	0.11	1	f	1	0.3456652747699991
12	2	n/a	n/a	n/a	j	3	0.1	1	j	1	0.411824123817496
12	3	n/a	n/a	n/a	f	3	0.09000000000000001	1	f	1	0.3835705639794469
12	4	n/a	n/a	n/a	f	3	0.08000000000000002	1	f	1	0.414793711155653
12	5	n/a	n/a	n/a	f	3	0.07000000000000002	1	f	1	0.4257563239661977
12	6	n/a	n/a	n/a	f	3	0.06000000000000002	1	f	1	0.3657576011028141
12	7	n/a	n/a	n/a	f	3	0.05000000000000002	1	f	1	0.4326756678055972
12	8	n/a	n/a	n/a	j	3	0.04000000000000001	2	j	1	0.4126731475116685
12	9	n/a	n/a	n/a	f	3	0.05000000000000002	1	f	1	0.3119375361129642
12	10	n/a	n/a	n/a	f	3	0.04000000000000001	0	f	1	0.4547035287832841
12	11	n/a	n/a	n/a	f	3	0.05000000000000002	2	f	1	0.3546818041941151
12	12	n/a	n/a	n/a	f	3	0.06000000000000002	1	f	1	0.4227217340376228
12	13	n/a	n/a	n/a	f	3	0.05000000000000002	1	f	1	0.3793759077088907
12	14	n/a	n/a	n/a	j	3	0.04000000000000001	1	j	1	0.3625260080443695
12	15	n/a	n/a	n/a	f	3	0.03000000000000001	1	f	1	0.350621999707073
12	16	n/a	n/a	n/a	f	3	0.02000000000000001	0	f	1	0.4415901318425313
12	17	n/a	n/a	n/a	f	3	0.03000000000000001	0	j	0	0.4144555842503905
12	18	n/a	n/a	n/a	f	3	0.04000000000000001	1	f	1	0.04175982275046408
12	19	n/a	n/a	n/a	f	3	0.03000000000000001	0	f	1	0.4180401293560863
12	20	n/a	n/a	n/a	j	3	0.04000000000000001	0	f	0	0.3741534708533436
12	21	n/a	n/a	n/a	f	3	0.03000000000000001	0	j	0	0.4099835269153118
12	22	n/a	n/a	n/a	f	3	0.02000000000000001	2	f	1	0.3905235494021326
12	23	n/a	n/a	n/a	f	3	0.03000000000000001	1	f	1	0.4254723656922579
12	24	n/a	n/a	n/a	f	3	0.02000000000000001	2	f	1	0.4463581215823069
12	25	n/a	n/a	n/a	f	3	0.03000000000000001	2	f	1	0.4183731245575473
12	26	n/a	n/a	n/a	j	3	0.04000000000000001	1	j	1	0.3601656765677035
12	27	n/a	n/a	n/a	f	3	0.03000000000000001	1	f	1	0.355351215810515
12	28	n/a	n/a	n/a	f	3	0.02000000000000001	0	f	1	0.4631073812488467
12	29	n/a	n/a	n/a	f	3	0.03000000000000001	2	f	1	0.4112590583972633
12	30	n/a	n/a	n/a	f	3	0.04000000000000001	1	f	1	0.4223297233693302
12	31	n/a	n/a	n/a	f	3	0.03000000000000001	2	f	1	0.3952895433176309
12	32	n/a	n/a	n/a	j	3	0.04000000000000001	1	j	1	0.3853900633985177
12	33	n/a	n/a	n/a	f	3	0.03000000000000001	1	f	1	0.396204995107837
12	34	n/a	n/a	n/a	f	3	0.02000000000000001	1	f	1	0.4421110070543364
12	35	n/a	n/a	n/a	f	3	0.01000000000000001	2	f	1	0.3487491867272183
12	36	n/a	n/a	n/a	f	3	0.02000000000000001	0	f	1	0.4482406277675182
12	37	n/a	n/a	n/a	f	3	0.03000000000000001	2	f	1	0.3117539325030521
12	38	n/a	n/a	n/a	j	3	0.04000000000000001	0	j	1	0.4146032652352005
12	39	n/a	n/a	n/a	f	3	0.05000000000000002	1	f	1	0.4760471530025825
12	40	n/a	n/a	n/a	f	3	0.04000000000000001	2	f	1	0.3751444737426937
12	41	n/a	n/a	n/a	f	3	0.05000000000000002	1	f	1	0.3646417250856757
12	42	n/a	n/a	n/a	f	3	0.04000000000000001	1	f	1	0.4498631241731346
12	43	n/a	n/a	n/a	f	3	0.03000000000000001	2	f	1	0.4129174770787358
12	44	n/a	n/a	n/a	j	3	0.04000000000000001	1	j	1	0.3938888538395986
12	45	n/a	n/a	n/a	f	3	0.03000000000000001	1	f	1	0.416845566011034
12	46	n/a	n/a	n/a	f	3	0.02000000000000001	2	f	1	0.4428402894409373
12	47	n/a	n/a	n/a	f	3	0.03000000000000001	2	f	1	0.3461733206640929
12	48	n/a	n/a	n/a	f	3	0.04000000000000001	0	f	1	0.4769286779919639
12	49	n/a	n/a	n/a	f	3	0.05000000000000002	2	f	1	0.4008130442816764
12	50	n/a	n/a	n/a	j	3	0.06000000000000002	1	j	1	0.3557640387443826
12	51	n/a	n/a	n/a	f	3	0.05000000000000002	1	f	1	0.3182958058314398
12	52	n/a	n/a	n/a	f	3	0.04000000000000001	0	f	1	0.4336923295632005
12	53	n/a	n/a	n/a	f	3	0.05000000000000002	1	f	1	0.4217529689194635
12	54	n/a	n/a	n/a	f	3	0.04000000000000001	1	f	1	0.419673744472675
12	55	n/a	n/a	n/a	f	3	0.03000000000000001	2	f	1	0.4084995886078104
12	56	n/a	n/a	n/a	j	3	0.04000000000000001	1	j	1	0.3246418163180351
12	57	n/a	n/a	n/a	f	3	0.03000000000000001	0	f	1	0.4221777657512575
12	58	n/a	n/a	n/a	f	3	0.04000000000000001	1	f	1	0.4494488757336512
12	59	n/a	n/a	n/a	f	3	0.03000000000000001	2	f	1	0.3825117076048627
12	60	n/a	n/a	n/a	f	3	0.04000000000000001	1	f	1	0.3850083162542433
12	61	n/a	n/a	n/a	f	3	0.03000000000000001	1	f	1	0.3961545325582847
12	62	n/a	n/a	n/a	j	3	0.02000000000000001	1	j	1	0.36692622047849
12	63	n/a	n/a	n/a	f	3	0.01000000000000001	0	f	1	0.3861487108515576
12	64	n/a	n/a	n/a	f	3	0.02000000000000001	1	f	1	0.4580759605159983
12	65	n/a	n/a	n/a	f	3	0.01000000000000001	2	f	1	0.3815426573855802
12	66	n/a	n/a	n/a	f	3	0.02000000000000001	1	f	1	0.4028247003443539
12	67	n/a	n/a	n/a	f	3	0.01000000000000001	2	f	1	0.3665943655651063
12	68	n/a	n/a	n/a	j	3	0.02000000000000001	1	j	1	0.4012344201328233
12	69	n/a	n/a	n/a	f	3	0.01000000000000001	2	f	1	0.3485347926616669
12	70	n/a	n/a	n/a	f	3	0.02000000000000001	0	f	1	0.4714302656939253
12	71	n/a	n/a	n/a	f	3	0.03000000000000001	2	f	1	0.3732910475227982
13	0	f	1	0.5008242201292887	f	5	0.04000000000000001	0	f	1	0.6273609730415046
13	1	n/a	n/a	n/a	j	5	0.05000000000000002	1	j	1	0.5410128642106429
13	2	n/a	n/a	n/a	f	5	0.04000000000000001	0	f	1	0.5522172405617312
13	3	n/a	n/a	n/a	f	5	0.05000000000000002	1	f	1	0.6141155755612999
13	4	n/a	n/a	n/a	f	5	0.04000000000000001	1	f	1	0.5437595044495538
13	5	n/a	n/a	n/a	j	5	0.03000000000000001	0	j	1	0.5222299959277734
13	6	n/a	n/a	n/a	f	5	0.04000000000000001	0	f	1	0.5337388577172533
13	7	n/a	n/a	n/a	f	5	0.05000000000000002	1	f	1	0.5451556324260309
13	8	n/a	n/a	n/a	f	5	0.04000000000000001	0	f	1	0.622626910218969
13	9	n/a	n/a	n/a	j	5	0.05000000000000002	1	j	1	0.5634606755338609
13	10	n/a	n/a	n/a	f	5	0.04000000000000001	1	f	1	0.5858055661665276
13	11	n/a	n/a	n/a	f	5	0.03000000000000001	1	f	1	0.5590396509505808
13	12	n/a	n/a	n/a	f	5	0.02000000000000001	0	f	1	0.6427836689399555
13	13	n/a	n/a	n/a	j	5	0.03000000000000001	2	j	1	0.4458138681948185
13	14	n/a	n/a	n/a	f	5	0.04000000000000001	0	f	1	0.5841699553420767
13	15	n/a	n/a	n/a	f	5	0.05000000000000002	1	f	1	0.5467162623535842
13	16	n/a	n/a	n/a	f	5	0.04000000000000001	0	f	1	1.093658608035184
13	17	n/a	n/a	n/a	j	5	0.05000000000000002	2	j	1	0.496453658095561
13	18	n/a	n/a	n/a	f	5	0.06000000000000002	0	f	1	0.6043606406310573
13	19	n/a	n/a	n/a	f	5	0.07000000000000002	1	f	1	0.5606789680896327
13	20	n/a	n/a	n/a	f	5	0.06000000000000002	1	f	1	0.5457400847226381
13	21	n/a	n/a	n/a	j	5	0.05000000000000002	1	j	1	0.4770786399021745
13	22	n/a	n/a	n/a	f	5	0.04000000000000001	0	f	1	0.5842842798447236
13	23	n/a	n/a	n/a	f	5	0.05000000000000002	1	f	1	0.5394203033065423
13	24	n/a	n/a	n/a	f	5	0.04000000000000001	0	f	1	0.5743748215027153
13	25	n/a	n/a	n/a	j	5	0.05000000000000002	1	j	1	0.5213658618740737
13	26	n/a	n/a	n/a	f	5	0.04000000000000001	0	f	1	0.5341060645878315
13	27	n/a	n/a	n/a	f	5	0.05000000000000002	0	f	1	0.6273113659117371
13	28	n/a	n/a	n/a	f	5	0.06000000000000002	1	f	1	0.5542856311658397
13	29	n/a	n/a	n/a	j	5	0.05000000000000002	1	j	1	0.4853416536934674
13	30	n/a	n/a	n/a	f	5	0.04000000000000001	0	f	1	0.5361268438864499
13	31	n/a	n/a	n/a	f	5	0.05000000000000002	0	f	1	0.5722676574951038
13	32	n/a	n/a	n/a	f	5	0.06000000000000002	1	f	1	0.5598843982443213
13	33	n/a	n/a	n/a	j	5	0.05000000000000002	1	j	1	0.5002523122821003
13	34	n/a	n/a	n/a	f	5	0.04000000000000001	0	f	1	0.5910587935941294
13	35	n/a	n/a	n/a	f	5	0.05000000000000002	1	f	1	0.5231799444882199
13	36	n/a	n/a	n/a	f	5	0.04000000000000001	0	f	1	0.5850395060842857
13	37	n/a	n/a	n/a	j	5	0.05000000000000002	1	j	1	0.4940405831439421
13	38	n/a	n/a	n/a	f	5	0.04000000000000001	0	f	1	0.5450336103094742
13	39	n/a	n/a	n/a	f	5	0.05000000000000002	1	f	1	0.5260662832297385
13	40	n/a	n/a	n/a	f	5	0.04000000000000001	0	f	1	0.6169850933365524
13	41	n/a	n/a	n/a	j	5	0.05000000000000002	1	j	1	0.4858006624272093
13	42	n/a	n/a	n/a	f	5	0.04000000000000001	0	f	1	0.5686526066856459
13	43	n/a	n/a	n/a	f	5	0.05000000000000002	1	f	1	0.5039337909547612
13	44	n/a	n/a	n/a	f	5	0.04000000000000001	0	f	1	0.5737265071365982
13	45	n/a	n/a	n/a	j	5	0.05000000000000002	1	j	1	0.5388327150139958
13	46	n/a	n/a	n/a	f	5	0.04000000000000001	0	f	1	0.5517722016666085
13	47	n/a	n/a	n/a	f	5	0.05000000000000002	1	f	1	0.5076018699910492
13	48	n/a	n/a	n/a	f	5	0.04000000000000001	0	f	1	0.5367962555028498
13	49	n/a	n/a	n/a	j	5	0.05000000000000002	0	j	1	0.501631619525142
13	50	n/a	n/a	n/a	f	5	0.06000000000000002	0	f	1	0.473833647207357
13	51	n/a	n/a	n/a	f	5	0.07000000000000002	0	f	1	0.573495862307027
13	52	n/a	n/a	n/a	f	5	0.08000000000000002	1	f	1	0.6155490514356643
13	53	n/a	n/a	n/a	j	5	0.07000000000000002	1	j	1	0.5310358374845237
13	54	n/a	n/a	n/a	f	5	0.06000000000000002	1	f	1	0.5825642796698958
13	55	n/a	n/a	n/a	f	5	0.05000000000000002	1	f	1	0.5524530172115192
13	56	n/a	n/a	n/a	f	5	0.04000000000000001	1	f	1	0.5655108197825029
13	57	n/a	n/a	n/a	j	5	0.03000000000000001	1	j	1	0.4965066864388064
13	58	n/a	n/a	n/a	f	5	0.02000000000000001	0	f	1	0.5808448499301448
13	59	n/a	n/a	n/a	f	5	0.03000000000000001	1	f	1	0.5302774751326069
13	60	n/a	n/a	n/a	f	5	0.02000000000000001	0	f	1	0.5688598733395338
13	61	n/a	n/a	n/a	j	5	0.03000000000000001	1	j	1	0.5083368542836979
13	62	n/a	n/a	n/a	f	5	0.02000000000000001	0	f	1	0.519470811355859
13	63	n/a	n/a	n/a	f	5	0.03000000000000001	0	f	1	0.5283656036481261
13	64	n/a	n/a	n/a	f	5	0.04000000000000001	0	f	1	0.5898973017465323
13	65	n/a	n/a	n/a	j	5	0.05000000000000002	1	j	1	0.5803407954517752
13	66	n/a	n/a	n/a	f	5	0.04000000000000001	1	f	1	0.5425526818726212
13	67	n/a	n/a	n/a	f	5	0.03000000000000001	0	f	1	0.5059967647539452
13	68	n/a	n/a	n/a	f	5	0.04000000000000001	0	f	1	0.532515499391593
13	69	n/a	n/a	n/a	j	5	0.05000000000000002	1	j	1	0.5356815196573734
13	70	n/a	n/a	n/a	f	5	0.04000000000000001	0	f	1	0.5334494825219736
13	71	n/a	n/a	n/a	f	5	0.05000000000000002	1	f	1	0.5290150584187359
14	0	j	1	0.03769916284363717	j	4	0.06000000000000002	2	j	1	0.4071907007601112
14	1	n/a	n/a	n/a	j	4	0.07000000000000002	1	j	1	0.3781659491360188
14	2	n/a	n/a	n/a	f	4	0.06000000000000002	1	f	1	0.3736477058846503
14	3	n/a	n/a	n/a	j	4	0.05000000000000002	1	j	1	0.346369753475301
14	4	n/a	n/a	n/a	j	4	0.04000000000000001	0	j	1	0.445851786294952
14	5	n/a	n/a	n/a	j	4	0.05000000000000002	2	j	1	0.4091233843937516
14	6	n/a	n/a	n/a	j	4	0.06000000000000002	2	f	0	0.0370192026020959
14	7	n/a	n/a	n/a	j	4	0.05000000000000002	0	j	1	0.3827172636520118
14	8	n/a	n/a	n/a	f	4	0.06000000000000002	0	j	0	0.4040129914646968
14	9	n/a	n/a	n/a	j	4	0.05000000000000002	0	f	0	0.3361127598909661
14	10	n/a	n/a	n/a	j	4	0.04000000000000001	0	j	1	0.3799543728819117
14	11	n/a	n/a	n/a	j	4	0.05000000000000002	1	j	1	0.4017641333630309
14	12	n/a	n/a	n/a	j	4	0.04000000000000001	1	j	1	0.4443541631335393
14	13	n/a	n/a	n/a	j	4	0.03000000000000001	2	j	1	0.422842045663856
14	14	n/a	n/a	n/a	f	4	0.04000000000000001	1	f	1	0.4048511814326048
14	15	n/a	n/a	n/a	j	4	0.03000000000000001	1	j	1	0.3158753183670342
14	16	n/a	n/a	n/a	j	4	0.02000000000000001	0	j	1	0.4280439553549513
14	17	n/a	n/a	n/a	j	4	0.03000000000000001	2	j	1	0.4399140371242538
14	18	n/a	n/a	n/a	j	4	0.04000000000000001	2	j	1	0.4199711023829877
14	19	n/a	n/a	n/a	j	4	0.05000000000000002	1	j	1	0.3188369229901582
14	20	n/a	n/a	n/a	f	4	0.04000000000000001	0	f	1	0.3706427662400529
14	21	n/a	n/a	n/a	j	4	0.05000000000000002	1	j	1	0.4478195371339098
14	22	n/a	n/a	n/a	j	4	0.04000000000000001	2	j	1	0.3624017051188275
14	23	n/a	n/a	n/a	j	4	0.05000000000000002	1	j	1	0.3576328601920977
14	24	n/a	n/a	n/a	j	4	0.04000000000000001	1	j	1	0.4335132875712588
14	25	n/a	n/a	n/a	j	4	0.03000000000000001	2	j	1	0.3965719169937074
14	26	n/a	n/a	n/a	f	4	0.04000000000000001	1	f	1	0.3542119617341086
14	27	n/a	n/a	n/a	j	4	0.03000000000000001	0	j	1	0.4784970056498423
14	28	n/a	n/a	n/a	j	4	0.04000000000000001	2	j	1	0.3854926989879459
14	29	n/a	n/a	n/a	j	4	0.05000000000000002	1	j	1	0.4064887879649177
14	30	n/a	n/a	n/a	j	4	0.04000000000000001	1	j	1	0.3694661642657593
14	31	n/a	n/a	n/a	j	4	0.03000000000000001	1	j	1	0.3965391307137907
14	32	n/a	n/a	n/a	f	4	0.02000000000000001	1	f	1	0.4121018098667264
14	33	n/a	n/a	n/a	j	4	0.01000000000000001	2	j	1	0.3854433768428862
14	34	n/a	n/a	n/a	j	4	0.02000000000000001	1	j	1	0.4360680565005168
14	35	n/a	n/a	n/a	j	4	0.01000000000000001	2	j	1	0.4403502378845587
14	36	n/a	n/a	n/a	j	4	0.02000000000000001	2	j	1	0.4440117597114295
14	37	n/a	n/a	n/a	j	4	0.03000000000000001	2	j	1	0.4044665832770988
14	38	n/a	n/a	n/a	f	4	0.04000000000000001	1	f	1	0.3313159754034132
14	39	n/a	n/a	n/a	j	4	0.03000000000000001	0	j	1	0.3684341070475057
14	40	n/a	n/a	n/a	j	4	0.04000000000000001	1	j	1	0.3672292802948505
14	41	n/a	n/a	n/a	j	4	0.03000000000000001	1	j	1	0.3402794764842838
14	42	n/a	n/a	n/a	j	4	0.02000000000000001	0	j	1	0.3847779566422105
14	43	n/a	n/a	n/a	j	4	0.03000000000000001	1	j	1	0.3970979240257293
14	44	n/a	n/a	n/a	f	4	0.02000000000000001	1	f	1	0.3203197210095823
14	45	n/a	n/a	n/a	j	4	0.01000000000000001	0	j	1	0.3871137697715312
14	46	n/a	n/a	n/a	j	4	0.02000000000000001	1	j	1	0.3854088799562305
14	47	n/a	n/a	n/a	j	4	0.01000000000000001	1	j	1	0.3511043866164982
14	48	n/a	n/a	n/a	j	4	1.040834085586084e-17	0	j	1	0.4440719155827537
14	49	n/a	n/a	n/a	j	4	0.01000000000000001	2	j	1	0.3987398069584742
14	50	n/a	n/a	n/a	f	4	0.02000000000000001	1	f	1	0.2829814931610599
14	51	n/a	n/a	n/a	j	4	0.01000000000000001	0	j	1	0.3760969883296639
14	52	n/a	n/a	n/a	j	4	0.02000000000000001	1	j	1	0.4589215631131083
14	53	n/a	n/a	n/a	j	4	0.01000000000000001	1	f	0	0.4651101991767064
14	54	n/a	n/a	n/a	j	4	0.02000000000000001	2	j	1	0.380652294261381
14	55	n/a	n/a	n/a	j	4	0.03000000000000001	1	j	1	0.4075630395673215
14	56	n/a	n/a	n/a	f	4	0.02000000000000001	1	j	0	0.3638055308256298
14	57	n/a	n/a	n/a	j	4	0.03000000000000001	1	j	1	0.5427206050371751
14	58	n/a	n/a	n/a	j	4	0.02000000000000001	2	j	1	0.4017641333630309
14	59	n/a	n/a	n/a	j	4	0.03000000000000001	1	j	1	0.3497045523254201
14	60	n/a	n/a	n/a	j	4	0.02000000000000001	0	j	1	0.4249343845294788
14	61	n/a	n/a	n/a	j	4	0.03000000000000001	2	j	1	0.397755931597203
14	62	n/a	n/a	n/a	f	4	0.04000000000000001	1	f	1	0.4029073788551614
14	63	n/a	n/a	n/a	j	4	0.03000000000000001	1	j	1	0.4455444499617442
14	64	n/a	n/a	n/a	j	4	0.02000000000000001	2	j	1	0.3771646826062351
14	65	n/a	n/a	n/a	j	4	0.03000000000000001	1	j	1	0.4192526538390666
14	66	n/a	n/a	n/a	j	4	0.02000000000000001	2	j	1	0.3424316861201078
14	67	n/a	n/a	n/a	j	4	0.03000000000000001	0	j	1	0.4011192402103916
14	68	n/a	n/a	n/a	f	4	0.04000000000000001	1	f	1	0.3645912626525387
14	69	n/a	n/a	n/a	j	4	0.03000000000000001	1	j	1	0.3927803902188316
14	70	n/a	n/a	n/a	j	4	0.02000000000000001	1	j	1	0.4195140892406926
14	71	n/a	n/a	n/a	j	4	0.01000000000000001	2	j	1	0.3367442534072325
15	0	f	1	0.4506089421920478	f	11	0.04000000000000001	0	f	1	1.036533964681439
15	1	n/a	n/a	n/a	f	11	0.05000000000000002	2	f	1	0.9148627050453797
15	2	n/a	n/a	n/a	j	11	0.06000000000000002	0	j	1	0.9344669425627217
15	3	n/a	n/a	n/a	f	11	0.07000000000000002	1	f	1	0.9384383665164933
15	4	n/a	n/a	n/a	f	11	0.06000000000000002	1	f	1	0.856967439991422
15	5	n/a	n/a	n/a	f	11	0.05000000000000002	0	f	1	0.8856820043874905
15	6	n/a	n/a	n/a	f	11	0.06000000000000002	0	f	1	0.9623304875567555
15	7	n/a	n/a	n/a	f	11	0.07000000000000002	1	f	1	0.8225255291908979
15	8	n/a	n/a	n/a	j	11	0.06000000000000002	0	j	1	0.8440892494982108
15	9	n/a	n/a	n/a	f	11	0.07000000000000002	0	f	1	0.8523830539779738
15	10	n/a	n/a	n/a	f	11	0.08000000000000002	0	f	1	0.8750119028845802
15	11	n/a	n/a	n/a	f	11	0.09000000000000001	0	f	1	0.9604716444155201
15	12	n/a	n/a	n/a	f	11	0.1	1	f	1	0.9528244435787201
15	13	n/a	n/a	n/a	f	11	0.09000000000000001	1	f	1	0.9152498689945787
15	14	n/a	n/a	n/a	j	11	0.08000000000000002	1	j	1	0.9204047374660149
15	15	n/a	n/a	n/a	f	11	0.07000000000000002	1	f	1	0.867139189154841
15	16	n/a	n/a	n/a	f	11	0.06000000000000002	0	f	1	0.8467540665296838
15	17	n/a	n/a	n/a	f	11	0.07000000000000002	0	f	1	0.851994464523159
15	18	n/a	n/a	n/a	f	11	0.08000000000000002	0	f	1	0.992036624928005
15	19	n/a	n/a	n/a	f	11	0.09000000000000001	1	f	1	0.8989533459534869
15	20	n/a	n/a	n/a	j	11	0.08000000000000002	0	j	1	0.822446271777153
15	21	n/a	n/a	n/a	f	11	0.09000000000000001	0	f	1	0.8818066586973146
15	22	n/a	n/a	n/a	f	11	0.1	0	f	1	0.8646140705095604
15	23	n/a	n/a	n/a	f	11	0.11	0	f	1	0.7408293747575954
15	24	n/a	n/a	n/a	f	11	0.12	0	f	1	1.007695667562075
15	25	n/a	n/a	n/a	f	11	0.13	1	f	1	0.9476091343676671
15	26	n/a	n/a	n/a	j	11	0.12	1	j	1	0.9341014460660517
15	27	n/a	n/a	n/a	f	11	0.11	1	f	1	0.8502681923564523
15	28	n/a	n/a	n/a	f	11	0.1	0	f	1	0.8623401238583028
15	29	n/a	n/a	n/a	f	11	0.11	0	f	1	0.8248875712743029
15	30	n/a	n/a	n/a	f	11	0.12	0	f	1	0.9823914528824389
15	31	n/a	n/a	n/a	f	11	0.13	1	f	1	0.8691477091051638
15	32	n/a	n/a	n/a	j	11	0.12	1	j	1	0.9261104164179415
15	33	n/a	n/a	n/a	f	11	0.11	1	f	1	0.9401954293716699
15	34	n/a	n/a	n/a	f	11	0.1	1	f	1	0.8719348333543167
15	35	n/a	n/a	n/a	f	11	0.09000000000000002	0	f	1	0.9550667444709688
15	36	n/a	n/a	n/a	f	11	0.1	1	f	1	0.9682035193545744
15	37	n/a	n/a	n/a	f	11	0.09000000000000002	1	f	1	0.9880104620242491
15	38	n/a	n/a	n/a	j	11	0.08000000000000003	1	j	1	0.8228970126947388
15	39	n/a	n/a	n/a	f	11	0.07000000000000003	0	f	1	0.9466107189655304
15	40	n/a	n/a	n/a	f	11	0.08000000000000003	1	f	1	0.837864120840095
15	41	n/a	n/a	n/a	f	11	0.07000000000000003	0	f	1	0.7689546402543783
15	42	n/a	n/a	n/a	f	11	0.08000000000000003	0	f	1	0.9178736316971481
15	43	n/a	n/a	n/a	f	11	0.09000000000000002	1	f	1	0.9023953416617587
15	44	n/a	n/a	n/a	j	11	0.08000000000000003	0	j	1	0.8096085651777685
15	45	n/a	n/a	n/a	f	11	0.09000000000000002	0	f	1	0.9175956605467945
15	46	n/a	n/a	n/a	f	11	0.1	1	f	1	0.8591960561461747
15	47	n/a	n/a	n/a	f	11	0.09000000000000002	0	f	1	0.9374924092553556
15	48	n/a	n/a	n/a	f	11	0.1	1	f	1	0.8714404721977189
15	49	n/a	n/a	n/a	f	11	0.09000000000000002	0	f	1	0.8923764055361971
15	50	n/a	n/a	n/a	j	11	0.1	1	j	1	0.8712642813334242
15	51	n/a	n/a	n/a	f	11	0.09000000000000002	0	f	1	0.938249631319195
15	52	n/a	n/a	n/a	f	11	0.1	1	f	1	0.8932037616614252
15	53	n/a	n/a	n/a	f	11	0.09000000000000002	1	f	1	0.903845353401266
15	54	n/a	n/a	n/a	f	11	0.08000000000000003	0	f	1	0.930815399158746
15	55	n/a	n/a	n/a	f	11	0.09000000000000002	1	f	1	0.9420605446211994
15	56	n/a	n/a	n/a	j	11	0.08000000000000003	1	j	1	0.817190763540566
15	57	n/a	n/a	n/a	f	11	0.07000000000000003	0	f	1	0.8586891506565735
15	58	n/a	n/a	n/a	f	11	0.08000000000000003	0	f	1	0.9530359868658707
15	59	n/a	n/a	n/a	f	11	0.09000000000000002	1	f	1	0.883970272145234
15	60	n/a	n/a	n/a	f	11	0.08000000000000003	0	f	1	0.8960610202047974
15	61	n/a	n/a	n/a	f	11	0.09000000000000002	0	f	1	0.8128253332106397
15	62	n/a	n/a	n/a	j	11	0.1	0	j	1	0.7275326595408842
15	63	n/a	n/a	n/a	f	11	0.11	0	f	1	0.8586763212224469
15	64	n/a	n/a	n/a	f	11	0.12	0	f	1	0.8616102712694556
15	65	n/a	n/a	n/a	f	11	0.13	1	f	1	0.9295777860097587
15	66	n/a	n/a	n/a	f	11	0.12	1	f	1	0.8855109451105818
15	67	n/a	n/a	n/a	f	11	0.11	1	f	1	0.897379886591807
15	68	n/a	n/a	n/a	j	11	0.1	1	j	1	0.9655287239002064
15	69	n/a	n/a	n/a	f	11	0.09000000000000002	1	f	1	0.8821770017966628
15	70	n/a	n/a	n/a	f	11	0.08000000000000003	0	f	1	0.9170528327813372
15	71	n/a	n/a	n/a	f	11	0.09000000000000002	1	f	1	0.9936046674847603
16	0	j	1	0.1264107392635196	j	12	0.08000000000000002	1	j	1	0.9455558538902551
16	1	n/a	n/a	n/a	j	12	0.07000000000000002	1	j	1	0.9016113204415888
16	2	n/a	n/a	n/a	f	12	0.06000000000000002	0	f	1	0.984102614922449
16	3	n/a	n/a	n/a	j	12	0.07000000000000002	1	j	1	0.9870633643586189
16	4	n/a	n/a	n/a	j	12	0.06000000000000002	1	j	1	0.9122152791824192
16	5	n/a	n/a	n/a	j	12	0.05000000000000002	0	j	1	0.9630469403928146
16	6	n/a	n/a	n/a	j	12	0.06000000000000002	1	j	1	0.9816176953027025
16	7	n/a	n/a	n/a	j	12	0.05000000000000002	1	j	1	1.00840271206107
16	8	n/a	n/a	n/a	f	12	0.04000000000000001	1	f	1	1.011275365948677
16	9	n/a	n/a	n/a	j	12	0.03000000000000001	1	j	1	0.8321627182886004
16	10	n/a	n/a	n/a	j	12	0.02000000000000001	0	j	1	0.8760701889405027
16	11	n/a	n/a	n/a	j	12	0.03000000000000001	0	j	1	1.009236340527423
16	12	n/a	n/a	n/a	j	12	0.04000000000000001	1	j	1	0.9798190080327913
16	13	n/a	n/a	n/a	j	12	0.03000000000000001	1	j	1	0.8251455855788663
16	14	n/a	n/a	n/a	f	12	0.02000000000000001	0	f	1	0.9328701051417738
16	15	n/a	n/a	n/a	j	12	0.03000000000000001	0	j	1	0.856043720501475
16	16	n/a	n/a	n/a	j	12	0.04000000000000001	0	j	1	1.034856159123592
16	17	n/a	n/a	n/a	j	12	0.05000000000000002	1	j	1	0.8938389614922926
16	18	n/a	n/a	n/a	j	12	0.04000000000000001	0	j	1	0.8583344880025834
16	19	n/a	n/a	n/a	j	12	0.05000000000000002	0	j	1	0.950779146165587
16	20	n/a	n/a	n/a	f	12	0.06000000000000002	1	f	1	0.938606004579924
16	21	n/a	n/a	n/a	j	12	0.05000000000000002	1	j	1	0.9095852442551404
16	22	n/a	n/a	n/a	j	12	0.04000000000000001	0	j	1	0.8504483746364713
16	23	n/a	n/a	n/a	j	12	0.05000000000000002	0	j	1	0.9994514702120796
16	24	n/a	n/a	n/a	j	12	0.06000000000000002	1	j	1	0.9311657854123041
16	25	n/a	n/a	n/a	j	12	0.05000000000000002	0	j	1	0.9909974404145032
16	26	n/a	n/a	n/a	f	12	0.06000000000000002	1	f	1	0.9143344172043726
16	27	n/a	n/a	n/a	j	12	0.05000000000000002	0	j	1	0.8961103423498571
16	28	n/a	n/a	n/a	j	12	0.06000000000000002	0	j	1	1.012196234427392
16	29	n/a	n/a	n/a	j	12	0.07000000000000002	1	j	1	0.8786697183968499
16	30	n/a	n/a	n/a	j	12	0.06000000000000002	0	j	1	0.8660295852459967
16	31	n/a	n/a	n/a	j	12	0.07000000000000002	0	j	1	0.9646010129945353
16	32	n/a	n/a	n/a	f	12	0.08000000000000002	1	f	1	0.8399248137138784
16	33	n/a	n/a	n/a	j	12	0.07000000000000002	0	j	1	0.8920596608659253
16	34	n/a	n/a	n/a	j	12	0.08000000000000002	0	j	1	0.8943527092924342
16	35	n/a	n/a	n/a	j	12	0.09000000000000001	0	j	1	0.9150913541670889
16	36	n/a	n/a	n/a	j	12	0.1	1	j	1	0.8879798994166777
16	37	n/a	n/a	n/a	j	12	0.09000000000000001	0	j	1	0.9306987938471138
16	38	n/a	n/a	n/a	f	12	0.1	1	f	1	0.9049099116818979
16	39	n/a	n/a	n/a	j	12	0.09000000000000001	1	j	1	0.8608912526397035
16	40	n/a	n/a	n/a	j	12	0.08000000000000002	0	j	1	0.8727616192772985
16	41	n/a	n/a	n/a	j	12	0.09000000000000001	0	j	1	0.931360792950727
16	42	n/a	n/a	n/a	j	12	0.1	1	j	1	0.9664692643564194
16	43	n/a	n/a	n/a	j	12	0.09000000000000001	1	j	1	0.9793870835565031
16	44	n/a	n/a	n/a	f	12	0.08000000000000002	1	f	1	0.9684384405845776
16	45	n/a	n/a	n/a	j	12	0.07000000000000002	1	j	1	0.884273617179133
16	46	n/a	n/a	n/a	j	12	0.06000000000000002	0	j	1	0.8562635314883664
16	47	n/a	n/a	n/a	j	12	0.07000000000000002	0	j	1	0.9478195371339098
16	48	n/a	n/a	n/a	j	12	0.08000000000000002	1	j	1	0.8551442342577502
16	49	n/a	n/a	n/a	j	12	0.07000000000000002	0	j	1	0.8438540431670845
16	50	n/a	n/a	n/a	f	12	0.08000000000000002	0	f	1	0.8829812649637461
16	51	n/a	n/a	n/a	j	12	0.09000000000000001	0	j	1	0.9601437809178606
16	52	n/a	n/a	n/a	j	12	0.1	1	j	1	0.8938580631511286
16	53	n/a	n/a	n/a	j	12	0.09000000000000001	0	j	1	0.8899755899328738
16	54	n/a	n/a	n/a	j	12	0.1	1	j	1	0.9440759069984779
16	55	n/a	n/a	n/a	j	12	0.09000000000000001	1	j	1	0.9076802150812
16	56	n/a	n/a	n/a	f	12	0.08000000000000002	0	f	1	0.9343557540560141
16	57	n/a	n/a	n/a	j	12	0.09000000000000001	1	j	1	0.8176549040945247
16	58	n/a	n/a	n/a	j	12	0.08000000000000002	0	j	1	0.8702191096963361
16	59	n/a	n/a	n/a	j	12	0.09000000000000001	0	j	1	0.961656229221262
16	60	n/a	n/a	n/a	j	12	0.1	1	j	1	0.9495757448021322
16	61	n/a	n/a	n/a	j	12	0.09000000000000001	1	j	1	0.8510205677011982
16	62	n/a	n/a	n/a	f	12	0.08000000000000002	0	f	1	0.8645815692143515
16	63	n/a	n/a	n/a	j	12	0.09000000000000001	0	j	1	0.9583285578992218
16	64	n/a	n/a	n/a	j	12	0.1	1	j	1	0.8282446077791974
16	65	n/a	n/a	n/a	j	12	0.09000000000000001	0	j	1	0.896390879410319
16	66	n/a	n/a	n/a	j	12	0.1	1	j	1	0.8911635959520936
16	67	n/a	n/a	n/a	j	12	0.09000000000000001	0	j	1	0.8072864369023591
16	68	n/a	n/a	n/a	f	12	0.1	0	f	1	0.876186509267427
16	69	n/a	n/a	n/a	j	12	0.11	0	j	1	0.8562133541563526
16	70	n/a	n/a	n/a	j	12	0.12	0	j	1	0.9385655205696821
16	71	n/a	n/a	n/a	j	12	0.13	1	j	1	0.7815437406534329
17	0	j	1	0.4583907094784081	j	6	0.02000000000000001	2	j	1	0.632937787566334
17	1	n/a	n/a	n/a	f	6	0.03000000000000001	2	f	1	0.6195809164782986
17	2	n/a	n/a	n/a	j	6	0.04000000000000001	1	j	1	0.6719771990319714
17	3	n/a	n/a	n/a	j	6	0.03000000000000001	2	j	1	0.5398887203773484
17	4	n/a	n/a	n/a	j	6	0.04000000000000001	0	j	1	0.6068293097196147
17	5	n/a	n/a	n/a	f	6	0.05000000000000002	1	f	1	0.6754003781825304
17	6	n/a	n/a	n/a	j	6	0.04000000000000001	2	j	1	0.6710366585757583
17	7	n/a	n/a	n/a	j	6	0.05000000000000002	2	j	1	0.5537103022215888
17	8	n/a	n/a	n/a	j	6	0.06000000000000002	1	j	1	0.6687584354076535
17	9	n/a	n/a	n/a	f	6	0.05000000000000002	2	f	1	0.6079908015672117
17	10	n/a	n/a	n/a	j	6	0.06000000000000002	1	j	1	0.5864096900913864
17	11	n/a	n/a	n/a	j	6	0.05000000000000002	1	j	1	0.5815265206620097
17	12	n/a	n/a	n/a	j	6	0.04000000000000001	1	j	1	0.6334720622980967
17	13	n/a	n/a	n/a	f	6	0.03000000000000001	2	f	1	0.6039592217421159
17	14	n/a	n/a	n/a	j	6	0.04000000000000001	1	j	1	0.6246052096830681
17	15	n/a	n/a	n/a	j	6	0.03000000000000001	2	j	1	0.5973725880030543
17	16	n/a	n/a	n/a	j	6	0.04000000000000001	1	j	1	0.5844496370991692
17	17	n/a	n/a	n/a	f	6	0.03000000000000001	1	f	1	0.57443640276324
17	18	n/a	n/a	n/a	j	6	0.02000000000000001	1	j	1	0.6539344466291368
17	19	n/a	n/a	n/a	j	6	0.01000000000000001	2	j	1	0.5212389931548387
17	20	n/a	n/a	n/a	j	6	0.02000000000000001	0	j	1	0.5562091916799545
17	21	n/a	n/a	n/a	f	6	0.03000000000000001	0	f	1	0.5588563324417919
17	22	n/a	n/a	n/a	j	6	0.04000000000000001	1	j	1	0.5867230135481805
17	23	n/a	n/a	n/a	j	6	0.03000000000000001	1	j	1	0.5580999659141526
17	24	n/a	n/a	n/a	j	6	0.02000000000000001	0	j	1	0.5932198412483558
17	25	n/a	n/a	n/a	f	6	0.03000000000000001	1	f	1	0.6287870365194976
17	26	n/a	n/a	n/a	j	6	0.02000000000000001	2	j	1	0.5091596489073709
17	27	n/a	n/a	n/a	j	6	0.03000000000000001	0	j	1	0.5608608609763905
17	28	n/a	n/a	n/a	j	6	0.04000000000000001	1	j	1	0.5491088101407513
17	29	n/a	n/a	n/a	f	6	0.03000000000000001	0	f	1	0.5687361406162381
17	30	n/a	n/a	n/a	j	6	0.04000000000000001	1	j	1	0.5640750630991533
17	31	n/a	n/a	n/a	j	6	0.03000000000000001	1	j	1	0.5118709369562566
17	32	n/a	n/a	n/a	j	6	0.02000000000000001	0	j	1	0.5787251415895298
17	33	n/a	n/a	n/a	f	6	0.03000000000000001	1	f	1	0.541305375401862
17	34	n/a	n/a	n/a	j	6	0.02000000000000001	0	j	1	0.6164436909602955
17	35	n/a	n/a	n/a	j	6	0.03000000000000001	2	j	1	0.5469175421167165
17	36	n/a	n/a	n/a	j	6	0.04000000000000001	0	j	1	0.5337029352085665
17	37	n/a	n/a	n/a	f	6	0.05000000000000002	0	f	1	0.5216652154922485
17	38	n/a	n/a	n/a	j	6	0.06000000000000002	0	j	1	0.5342719921609387
17	39	n/a	n/a	n/a	j	6	0.07000000000000002	1	j	1	0.6685263650724664
17	40	n/a	n/a	n/a	j	6	0.06000000000000002	2	j	1	0.521568852243945
17	41	n/a	n/a	n/a	f	6	0.07000000000000002	1	f	1	0.6045237169601023
17	42	n/a	n/a	n/a	j	6	0.06000000000000002	1	j	1	0.5581695298897102
17	43	n/a	n/a	n/a	j	6	0.05000000000000002	1	j	1	0.524022125871852
17	44	n/a	n/a	n/a	j	6	0.04000000000000001	0	j	1	0.5674708728911355
17	45	n/a	n/a	n/a	f	6	0.05000000000000002	1	f	1	0.6124044135212898
17	46	n/a	n/a	n/a	j	6	0.04000000000000001	1	j	1	0.6013497139792889
17	47	n/a	n/a	n/a	j	6	0.03000000000000001	1	j	1	0.5500273980433121
17	48	n/a	n/a	n/a	j	6	0.02000000000000001	0	j	1	0.5244777135085315
17	49	n/a	n/a	n/a	f	6	0.03000000000000001	0	f	1	0.6163424809928983
17	50	n/a	n/a	n/a	j	6	0.04000000000000001	1	j	1	0.6032111229142174
17	51	n/a	n/a	n/a	j	6	0.03000000000000001	1	j	1	0.5108237697277218
17	52	n/a	n/a	n/a	j	6	0.02000000000000001	0	j	1	0.55396860151086
17	53	n/a	n/a	n/a	f	6	0.03000000000000001	0	f	1	0.6138076690258458
17	54	n/a	n/a	n/a	j	6	0.04000000000000001	1	j	1	0.5711269777966663
17	55	n/a	n/a	n/a	j	6	0.03000000000000001	1	j	1	0.5058929887600243
17	56	n/a	n/a	n/a	j	6	0.02000000000000001	0	j	1	0.5660462349187583
17	57	n/a	n/a	n/a	f	6	0.03000000000000001	1	f	1	0.5411659622332081
17	58	n/a	n/a	n/a	j	6	0.02000000000000001	0	j	1	0.5808998739812523
17	59	n/a	n/a	n/a	j	6	0.03000000000000001	1	j	1	0.5600198201136664
17	60	n/a	n/a	n/a	j	6	0.02000000000000001	0	j	1	0.5468428462045267
17	61	n/a	n/a	n/a	f	6	0.03000000000000001	0	f	1	0.5899098460795358
17	62	n/a	n/a	n/a	j	6	0.04000000000000001	1	j	1	0.6009802260668948
17	63	n/a	n/a	n/a	j	6	0.03000000000000001	1	j	1	0.6186762985307723
17	64	n/a	n/a	n/a	j	6	0.02000000000000001	2	j	1	0.4959470377070829
17	65	n/a	n/a	n/a	f	6	0.03000000000000001	0	f	1	0.5792725308565423
17	66	n/a	n/a	n/a	j	6	0.04000000000000001	1	j	1	0.5736586536513641
17	67	n/a	n/a	n/a	j	6	0.03000000000000001	1	j	1	0.5537761599989608
17	68	n/a	n/a	n/a	j	6	0.02000000000000001	0	j	1	0.573168569128029
17	69	n/a	n/a	n/a	f	6	0.03000000000000001	1	f	1	0.5216763344360515
17	70	n/a	n/a	n/a	j	6	0.02000000000000001	0	j	1	0.5756406594300643
17	71	n/a	n/a	n/a	j	6	0.03000000000000001	1	j	1	0.5544572605285794
18	0	j	1	0.002251423895359039	j	2	0.02000000000000001	2	j	1	0.426938057760708
18	1	n/a	n/a	n/a	f	2	0.03000000000000001	2	f	1	0.3975646303733811
18	2	n/a	n/a	n/a	j	2	0.04000000000000001	1	j	1	0.3487936621531844
18	3	n/a	n/a	n/a	j	2	0.03000000000000001	0	j	1	0.4393600904149935
18	4	n/a	n/a	n/a	j	2	0.04000000000000001	2	j	1	0.425561886630021
18	5	n/a	n/a	n/a	f	2	0.05000000000000002	1	f	1	0.3241263580275699
18	6	n/a	n/a	n/a	j	2	0.04000000000000001	0	j	1	0.4312769739190117
18	7	n/a	n/a	n/a	j	2	0.05000000000000002	1	j	1	0.4422929000575095
18	8	n/a	n/a	n/a	j	2	0.04000000000000001	2	j	1	0.4104721860494465
18	9	n/a	n/a	n/a	f	2	0.05000000000000002	1	f	1	0.3763672618661076
18	10	n/a	n/a	n/a	j	2	0.04000000000000001	1	j	1	0.4300598878180608
18	11	n/a	n/a	n/a	j	2	0.03000000000000001	2	j	1	0.3854188583791256
18	12	n/a	n/a	n/a	j	2	0.04000000000000001	1	j	1	0.4199468690203503
18	13	n/a	n/a	n/a	f	2	0.03000000000000001	2	f	1	0.3534789730329067
18	14	n/a	n/a	n/a	j	2	0.04000000000000001	1	j	1	0.4693630154943094
18	15	n/a	n/a	n/a	j	2	0.03000000000000001	2	j	1	0.4241426655789837
18	16	n/a	n/a	n/a	j	2	0.04000000000000001	1	j	1	0.3962471896084026
18	17	n/a	n/a	n/a	f	2	0.03000000000000001	1	f	1	0.4084305947180837
18	18	n/a	n/a	n/a	j	2	0.02000000000000001	2	j	1	0.4762584111886099
18	19	n/a	n/a	n/a	j	2	0.03000000000000001	2	j	1	0.4084374370286241
18	20	n/a	n/a	n/a	j	2	0.04000000000000001	1	j	1	0.3821758613921702
18	21	n/a	n/a	n/a	f	2	0.03000000000000001	1	f	1	0.402209457475692
18	22	n/a	n/a	n/a	j	2	0.02000000000000001	1	j	1	0.4403063327772543
18	23	n/a	n/a	n/a	j	2	0.01000000000000001	2	j	1	0.4269719844451174
18	24	n/a	n/a	n/a	j	2	0.02000000000000001	2	j	1	0.4237968409433961
18	25	n/a	n/a	n/a	f	2	0.03000000000000001	2	f	1	0.3231752689462155
18	26	n/a	n/a	n/a	j	2	0.04000000000000001	0	j	1	0.408133236807771
18	27	n/a	n/a	n/a	j	2	0.05000000000000002	1	j	1	0.4347731384914368
18	28	n/a	n/a	n/a	j	2	0.04000000000000001	2	j	1	0.4482146837981418
18	29	n/a	n/a	n/a	f	2	0.05000000000000002	2	f	1	0.3010205391328782
18	30	n/a	n/a	n/a	j	2	0.06000000000000002	0	j	1	0.4179702801629901
18	31	n/a	n/a	n/a	j	2	0.07000000000000002	1	j	1	0.4379767918726429
18	32	n/a	n/a	n/a	j	2	0.06000000000000002	1	j	1	0.3539416881976649
18	33	n/a	n/a	n/a	f	2	0.05000000000000002	1	f	1	0.4305562445661053
18	34	n/a	n/a	n/a	j	2	0.04000000000000001	2	j	1	0.3698955227155238
18	35	n/a	n/a	n/a	j	2	0.05000000000000002	1	j	1	0.4045250285416842
18	36	n/a	n/a	n/a	j	2	0.04000000000000001	1	j	1	0.4177208188921213
18	37	n/a	n/a	n/a	f	2	0.03000000000000001	2	f	1	0.3887288535479456
18	38	n/a	n/a	n/a	j	2	0.04000000000000001	1	j	1	0.433869945933111
18	39	n/a	n/a	n/a	j	2	0.03000000000000001	2	j	1	0.4469881894765422
18	40	n/a	n/a	n/a	j	2	0.04000000000000001	2	j	1	0.402606314746663
18	41	n/a	n/a	n/a	f	2	0.05000000000000002	1	f	1	0.3347619625274092
18	42	n/a	n/a	n/a	j	2	0.04000000000000001	0	j	1	0.4057295703096315
18	43	n/a	n/a	n/a	j	2	0.05000000000000002	1	j	1	0.4176566716050729
18	44	n/a	n/a	n/a	j	2	0.04000000000000001	1	j	1	0.4131783422781155
18	45	n/a	n/a	n/a	f	2	0.03000000000000001	2	f	1	0.344528301502578
18	46	n/a	n/a	n/a	j	2	0.04000000000000001	0	j	1	0.419650366413407
18	47	n/a	n/a	n/a	j	2	0.05000000000000002	1	j	1	0.3744382844306529
18	48	n/a	n/a	n/a	j	2	0.04000000000000001	1	j	1	0.3935983382398263
18	49	n/a	n/a	n/a	f	2	0.03000000000000001	1	f	1	0.3903182783396915
18	50	n/a	n/a	n/a	j	2	0.02000000000000001	1	j	1	0.4123963167658076
18	51	n/a	n/a	n/a	j	2	0.01000000000000001	2	j	1	0.3833402041345835
18	52	n/a	n/a	n/a	j	2	0.02000000000000001	1	j	1	0.4505111533217132
18	53	n/a	n/a	n/a	f	2	0.01000000000000001	2	f	1	0.3664940109010786
18	54	n/a	n/a	n/a	j	2	0.02000000000000001	1	j	1	0.3711453952128068
18	55	n/a	n/a	n/a	j	2	0.01000000000000001	1	f	0	0.4224306483520195
18	56	n/a	n/a	n/a	j	2	0.02000000000000001	2	j	1	0.384910527500324
18	57	n/a	n/a	n/a	f	2	0.03000000000000001	2	j	0	0.4373239158885553
18	58	n/a	n/a	n/a	j	2	0.02000000000000001	2	f	0	0.4733635196462274
18	59	n/a	n/a	n/a	j	2	0.03000000000000001	2	f	0	0.3641094459453598
18	60	n/a	n/a	n/a	j	2	0.04000000000000001	1	j	1	0.2580869653029367
18	61	n/a	n/a	n/a	f	2	0.03000000000000001	1	j	0	0.2144166966900229
18	62	n/a	n/a	n/a	j	2	0.04000000000000001	1	f	0	0.4875035565346479
18	63	n/a	n/a	n/a	j	2	0.05000000000000002	2	j	1	0.3697472714120522
18	64	n/a	n/a	n/a	j	2	0.06000000000000002	1	j	1	0.4223206003662199
18	65	n/a	n/a	n/a	f	2	0.05000000000000002	1	f	1	0.3479996623937041
18	66	n/a	n/a	n/a	j	2	0.04000000000000001	1	j	1	0.4201259108958766
18	67	n/a	n/a	n/a	j	2	0.03000000000000001	2	j	1	0.4311426924541593
18	68	n/a	n/a	n/a	j	2	0.04000000000000001	2	j	1	0.4271136785391718
18	69	n/a	n/a	n/a	f	2	0.05000000000000002	1	f	1	0.289259365061298
18	70	n/a	n/a	n/a	j	2	0.04000000000000001	0	j	1	0.3886681274743751
18	71	n/a	n/a	n/a	j	2	0.05000000000000002	1	j	1	0.4331711692502722
19	0	f	0	0.4265885268105194	f	7	0.08000000000000002	0	f	1	0.06106328102760017
19	1	n/a	n/a	n/a	f	7	0.09000000000000001	0	f	1	0.5066952564520761
19	2	n/a	n/a	n/a	j	7	0.1	0	f	0	0.5569570054067299
19	3	n/a	n/a	n/a	f	7	0.09000000000000001	0	j	0	0.576650763861835
19	4	n/a	n/a	n/a	f	7	0.08000000000000002	1	f	1	0.5880076680332422
19	5	n/a	n/a	n/a	f	7	0.07000000000000002	1	f	1	0.518909452133812
19	6	n/a	n/a	n/a	f	7	0.06000000000000002	0	f	1	0.5507236088160425
19	7	n/a	n/a	n/a	f	7	0.07000000000000002	1	f	1	0.5605384145164862
19	8	n/a	n/a	n/a	j	7	0.06000000000000002	1	j	1	0.4926755309570581
19	9	n/a	n/a	n/a	f	7	0.05000000000000002	0	f	1	0.5704205033835024
19	10	n/a	n/a	n/a	f	7	0.06000000000000002	1	f	1	0.5097885766299441
19	11	n/a	n/a	n/a	f	7	0.05000000000000002	0	f	1	0.5621765911346301
19	12	n/a	n/a	n/a	f	7	0.06000000000000002	1	f	1	0.5833286292618141
19	13	n/a	n/a	n/a	f	7	0.05000000000000002	1	f	1	0.5896301643224433
19	14	n/a	n/a	n/a	j	7	0.04000000000000001	1	j	1	0.5306714815087616
19	15	n/a	n/a	n/a	f	7	0.03000000000000001	0	f	1	0.5821642864029855
19	16	n/a	n/a	n/a	f	7	0.04000000000000001	1	f	1	0.5545484921894968
19	17	n/a	n/a	n/a	f	7	0.03000000000000001	0	f	1	0.5834905651863664
19	18	n/a	n/a	n/a	f	7	0.04000000000000001	1	f	1	0.5415536962682381
19	19	n/a	n/a	n/a	f	7	0.03000000000000001	0	f	1	0.6032735595945269
19	20	n/a	n/a	n/a	j	7	0.04000000000000001	1	j	1	0.5183617776492611
19	21	n/a	n/a	n/a	f	7	0.03000000000000001	0	f	1	0.6103636774932966
19	22	n/a	n/a	n/a	f	7	0.04000000000000001	1	f	1	0.5338449142873287
19	23	n/a	n/a	n/a	f	7	0.03000000000000001	1	j	0	0.4812972444342449
19	24	n/a	n/a	n/a	f	7	0.04000000000000001	0	f	1	0.6932757776230574
19	25	n/a	n/a	n/a	f	7	0.05000000000000002	0	j	0	1.498775786487386
19	26	n/a	n/a	n/a	j	7	0.06000000000000002	0	f	0	0.5260788275627419
19	27	n/a	n/a	n/a	f	7	0.07000000000000002	0	j	0	0.528183140559122
19	28	n/a	n/a	n/a	f	7	0.06000000000000002	1	f	1	0.7080504442565143
19	29	n/a	n/a	n/a	f	7	0.05000000000000002	2	f	1	0.5360418843338266
19	30	n/a	n/a	n/a	f	7	0.06000000000000002	1	f	1	0.5852730019250885
19	31	n/a	n/a	n/a	f	7	0.05000000000000002	1	f	1	0.5028635307680815
19	32	n/a	n/a	n/a	j	7	0.04000000000000001	0	j	1	0.5389923702459782
19	33	n/a	n/a	n/a	f	7	0.05000000000000002	0	f	1	0.5496513529215008
19	34	n/a	n/a	n/a	f	7	0.06000000000000002	1	f	1	0.5294612377183512
19	35	n/a	n/a	n/a	f	7	0.05000000000000002	0	f	1	0.5015412432840094
19	36	n/a	n/a	n/a	f	7	0.06000000000000002	0	f	1	0.6013334633316845
19	37	n/a	n/a	n/a	f	7	0.07000000000000002	1	f	1	0.5199474962428212
19	38	n/a	n/a	n/a	j	7	0.06000000000000002	0	j	1	0.4919114665826783
19	39	n/a	n/a	n/a	f	7	0.07000000000000002	0	f	1	0.4888934125192463
19	40	n/a	n/a	n/a	f	7	0.08000000000000002	0	f	1	0.5396786025958136
19	41	n/a	n/a	n/a	f	7	0.09000000000000001	1	f	1	0.6007307647960261
19	42	n/a	n/a	n/a	f	7	0.08000000000000002	1	f	1	0.5635960972867906
19	43	n/a	n/a	n/a	f	7	0.07000000000000002	1	f	1	0.5606034169904888
19	44	n/a	n/a	n/a	j	7	0.06000000000000002	1	j	1	0.516544273821637
19	45	n/a	n/a	n/a	f	7	0.05000000000000002	0	f	1	0.5300077717984095
19	46	n/a	n/a	n/a	f	7	0.06000000000000002	1	f	1	0.493472951813601
19	47	n/a	n/a	n/a	f	7	0.05000000000000002	0	f	1	0.5361493666423485
19	48	n/a	n/a	n/a	f	7	0.06000000000000002	1	f	1	0.5964762379880995
19	49	n/a	n/a	n/a	f	7	0.05000000000000002	1	f	1	0.6013933341018856
19	50	n/a	n/a	n/a	j	7	0.04000000000000001	1	j	1	0.5083456924185157
19	51	n/a	n/a	n/a	f	7	0.03000000000000001	0	f	1	0.5200201964471489
19	52	n/a	n/a	n/a	f	7	0.04000000000000001	0	f	1	0.5962855068501085
19	53	n/a	n/a	n/a	f	7	0.05000000000000002	1	f	1	0.6003401796333492
19	54	n/a	n/a	n/a	f	7	0.04000000000000001	1	f	1	0.5363609098130837
19	55	n/a	n/a	n/a	f	7	0.03000000000000001	0	f	1	0.5248335166834295
19	56	n/a	n/a	n/a	j	7	0.04000000000000001	0	j	1	0.5122948787175119
19	57	n/a	n/a	n/a	f	7	0.05000000000000002	0	f	1	0.5074028712697327
19	58	n/a	n/a	n/a	f	7	0.06000000000000002	0	f	1	0.5900974409887567
19	59	n/a	n/a	n/a	f	7	0.07000000000000002	1	f	1	0.5695238681510091
19	60	n/a	n/a	n/a	f	7	0.06000000000000002	1	f	1	0.6300602869596332
19	61	n/a	n/a	n/a	f	7	0.05000000000000002	1	f	1	0.4995401359628886
19	62	n/a	n/a	n/a	j	7	0.04000000000000001	0	j	1	0.5106424470432103
19	63	n/a	n/a	n/a	f	7	0.05000000000000002	0	f	1	0.4749415405094624
19	64	n/a	n/a	n/a	f	7	0.06000000000000002	0	f	1	0.5527324138674885
19	65	n/a	n/a	n/a	f	7	0.07000000000000002	1	f	1	0.6128038368187845
19	66	n/a	n/a	n/a	f	7	0.06000000000000002	1	f	1	0.5360145149752498
19	67	n/a	n/a	n/a	f	7	0.05000000000000002	1	f	1	0.5239160693017766
19	68	n/a	n/a	n/a	j	7	0.04000000000000001	0	j	1	0.4947262455243617
19	69	n/a	n/a	n/a	f	7	0.05000000000000002	0	f	1	0.6258000581292436
19	70	n/a	n/a	n/a	f	7	0.06000000000000002	1	f	1	0.4857627443270758
19	71	n/a	n/a	n/a	f	7	0.05000000000000002	0	f	1	0.6003296310082078
20	0	j	1	0.387382332701236	j	8	0.06000000000000002	1	j	1	0.585283835651353
20	1	n/a	n/a	n/a	j	8	0.05000000000000002	1	j	1	0.6116970838047564
20	2	n/a	n/a	n/a	f	8	0.04000000000000001	1	f	1	0.6066482721362263
20	3	n/a	n/a	n/a	j	8	0.03000000000000001	1	j	1	0.5535959776025265
20	4	n/a	n/a	n/a	j	8	0.02000000000000001	0	j	1	0.5815749875037
20	5	n/a	n/a	n/a	j	8	0.03000000000000001	1	j	1	0.5697553682839498
20	6	n/a	n/a	n/a	j	8	0.02000000000000001	1	j	1	0.643590212916024
20	7	n/a	n/a	n/a	j	8	0.01000000000000001	2	j	1	0.5422906762687489
20	8	n/a	n/a	n/a	f	8	0.02000000000000001	0	f	1	0.5210374282905832
20	9	n/a	n/a	n/a	j	8	0.03000000000000001	0	j	1	0.652480443706736
20	10	n/a	n/a	n/a	j	8	0.04000000000000001	2	j	1	0.5035452014999464
20	11	n/a	n/a	n/a	j	8	0.05000000000000002	0	j	1	0.5618142308667302
20	12	n/a	n/a	n/a	j	8	0.06000000000000002	1	j	1	0.5979624569881707
20	13	n/a	n/a	n/a	j	8	0.05000000000000002	1	j	1	0.5782792472746223
20	14	n/a	n/a	n/a	f	8	0.04000000000000001	1	f	1	0.5682970887282863
20	15	n/a	n/a	n/a	j	8	0.03000000000000001	1	j	1	0.5791727463947609
20	16	n/a	n/a	n/a	j	8	0.02000000000000001	1	j	1	0.5261469660326838
20	17	n/a	n/a	n/a	j	8	0.01000000000000001	0	j	1	0.5690602977992967
20	18	n/a	n/a	n/a	j	8	0.02000000000000001	1	j	1	0.5437404027907178
20	19	n/a	n/a	n/a	j	8	0.01000000000000001	0	j	1	0.5500108622945845
20	20	n/a	n/a	n/a	f	8	0.02000000000000001	0	f	1	0.552739541279152
20	21	n/a	n/a	n/a	j	8	0.03000000000000001	0	j	1	0.619885686901398
20	22	n/a	n/a	n/a	j	8	0.04000000000000001	1	j	1	0.542980044730939
20	23	n/a	n/a	n/a	j	8	0.03000000000000001	0	j	1	0.5135313514620066
20	24	n/a	n/a	n/a	j	8	0.04000000000000001	0	j	1	0.5440309182740748
20	25	n/a	n/a	n/a	j	8	0.05000000000000002	1	j	1	0.4767744396813214
20	26	n/a	n/a	n/a	f	8	0.04000000000000001	0	f	1	0.5759839181555435
20	27	n/a	n/a	n/a	j	8	0.05000000000000002	1	j	1	0.596851427690126
20	28	n/a	n/a	n/a	j	8	0.04000000000000001	1	j	1	0.5307741169817746
20	29	n/a	n/a	n/a	j	8	0.03000000000000001	0	j	1	0.5696578645147383
20	30	n/a	n/a	n/a	j	8	0.04000000000000001	1	j	1	0.6207783306017518
20	31	n/a	n/a	n/a	j	8	0.03000000000000001	2	j	1	0.5757695239735767
20	32	n/a	n/a	n/a	f	8	0.04000000000000001	1	f	1	0.5475969320395961
20	33	n/a	n/a	n/a	j	8	0.03000000000000001	0	j	1	0.6251828194363043
20	34	n/a	n/a	n/a	j	8	0.04000000000000001	1	j	1	0.5245829148916528
20	35	n/a	n/a	n/a	j	8	0.03000000000000001	0	j	1	0.4985611072042957
20	36	n/a	n/a	n/a	j	8	0.04000000000000001	0	j	1	0.5654557957313955
20	37	n/a	n/a	n/a	j	8	0.05000000000000002	1	j	1	0.5624442988773808
20	38	n/a	n/a	n/a	f	8	0.04000000000000001	1	f	1	0.5571443152148277
20	39	n/a	n/a	n/a	j	8	0.03000000000000001	1	j	1	0.5673183450708166
20	40	n/a	n/a	n/a	j	8	0.02000000000000001	1	j	1	0.5464183343574405
20	41	n/a	n/a	n/a	j	8	0.01000000000000001	0	j	1	0.5270589966094121
20	42	n/a	n/a	n/a	j	8	0.02000000000000001	0	j	1	0.6018420793116093
20	43	n/a	n/a	n/a	j	8	0.03000000000000001	1	j	1	0.6222830812912434
20	44	n/a	n/a	n/a	f	8	0.02000000000000001	2	f	1	0.5222057624487206
20	45	n/a	n/a	n/a	j	8	0.03000000000000001	0	j	1	0.5328775745583698
20	46	n/a	n/a	n/a	j	8	0.04000000000000001	0	j	1	0.5283254047390074
20	47	n/a	n/a	n/a	j	8	0.05000000000000002	0	j	1	0.5071608225116506
20	48	n/a	n/a	n/a	j	8	0.06000000000000002	0	j	1	0.5557017161045223
20	49	n/a	n/a	n/a	j	8	0.07000000000000002	1	j	1	0.5371654580812901
20	50	n/a	n/a	n/a	f	8	0.06000000000000002	1	f	1	0.5490130169782788
20	51	n/a	n/a	n/a	j	8	0.05000000000000002	1	j	1	0.5362098074983805
20	52	n/a	n/a	n/a	j	8	0.04000000000000001	0	j	1	0.5319398852298036
20	53	n/a	n/a	n/a	j	8	0.05000000000000002	0	j	1	0.5920771658420563
20	54	n/a	n/a	n/a	j	8	0.06000000000000002	1	j	1	0.5648696329444647
20	55	n/a	n/a	n/a	j	8	0.05000000000000002	1	j	1	0.6080315706785768
20	56	n/a	n/a	n/a	f	8	0.04000000000000001	1	j	0	0.5383699998492375
20	57	n/a	n/a	n/a	j	8	0.03000000000000001	0	j	1	0.5689684960525483
20	58	n/a	n/a	n/a	j	8	0.04000000000000001	1	j	1	0.5730274453526363
20	59	n/a	n/a	n/a	j	8	0.03000000000000001	1	j	1	0.5137471711495891
20	60	n/a	n/a	n/a	j	8	0.02000000000000001	0	j	1	0.5496433700900525
20	61	n/a	n/a	n/a	j	8	0.03000000000000001	0	j	1	0.5449304046342149
20	62	n/a	n/a	n/a	f	8	0.04000000000000001	0	j	0	0.4908483338076621
20	63	n/a	n/a	n/a	j	8	0.05000000000000002	0	j	1	0.6052595565561205
20	64	n/a	n/a	n/a	j	8	0.06000000000000002	1	j	1	0.5767542546382174
20	65	n/a	n/a	n/a	j	8	0.05000000000000002	1	j	1	0.4905295935459435
20	66	n/a	n/a	n/a	j	8	0.04000000000000001	0	j	1	0.5665411662776023
20	67	n/a	n/a	n/a	j	8	0.05000000000000002	1	j	1	0.555166871054098
20	68	n/a	n/a	n/a	f	8	0.04000000000000001	1	f	1	0.4955099816434085
20	69	n/a	n/a	n/a	j	8	0.03000000000000001	0	j	1	0.5952477478422225
20	70	n/a	n/a	n/a	j	8	0.04000000000000001	1	j	1	0.5148955484619364
20	71	n/a	n/a	n/a	j	8	0.03000000000000001	0	j	1	0.510411802213639
21	0	f	1	0.002249428303912282	f	1	0.04000000000000001	2	f	1	0.3718319126637653
21	1	n/a	n/a	n/a	j	1	0.05000000000000002	1	j	1	0.3992720860987902
21	2	n/a	n/a	n/a	f	1	0.04000000000000001	1	f	1	0.3544984858017415
21	3	n/a	n/a	n/a	f	1	0.03000000000000001	0	f	1	0.4706716183573008
21	4	n/a	n/a	n/a	f	1	0.04000000000000001	2	f	1	0.3142325801309198
21	5	n/a	n/a	n/a	j	1	0.05000000000000002	0	j	1	0.3606993812136352
21	6	n/a	n/a	n/a	f	1	0.06000000000000002	1	f	1	0.4287661102134734
21	7	n/a	n/a	n/a	f	1	0.05000000000000002	1	f	1	0.431804406340234
21	8	n/a	n/a	n/a	f	1	0.04000000000000001	2	f	1	0.3784607410198078
21	9	n/a	n/a	n/a	j	1	0.05000000000000002	1	j	1	0.3741261013783514
21	10	n/a	n/a	n/a	f	1	0.04000000000000001	1	f	1	0.4101756834425032
21	11	n/a	n/a	n/a	f	1	0.03000000000000001	1	f	1	0.4143335620174184
21	12	n/a	n/a	n/a	f	1	0.02000000000000001	2	f	1	0.3787937363376841
21	13	n/a	n/a	n/a	j	1	0.03000000000000001	1	j	1	0.3759781022090465
21	14	n/a	n/a	n/a	f	1	0.02000000000000001	1	f	1	0.4062701172661036
21	15	n/a	n/a	n/a	f	1	0.01000000000000001	2	f	1	0.3782263899920508
21	16	n/a	n/a	n/a	f	1	0.02000000000000001	1	f	1	0.3892942041857168
21	17	n/a	n/a	n/a	j	1	0.01000000000000001	1	j	1	0.3542054045246914
21	18	n/a	n/a	n/a	f	1	1.040834085586084e-17	0	f	1	0.4530451099853963
21	19	n/a	n/a	n/a	f	1	0.01000000000000001	2	f	1	0.3443064946914092
21	20	n/a	n/a	n/a	f	1	0.02000000000000001	0	f	1	0.3872118436265737
21	21	n/a	n/a	n/a	j	1	0.03000000000000001	1	j	1	0.3825128480093554
21	22	n/a	n/a	n/a	f	1	0.02000000000000001	1	f	1	0.3612755654612556
21	23	n/a	n/a	n/a	f	1	0.01000000000000001	0	f	1	0.4371468697208911
21	24	n/a	n/a	n/a	f	1	0.02000000000000001	2	f	1	0.3693843408254907
