blockLoop_thisRepN	trialLoop_thisRepN	firstKey	readyKey_corr	readyKey_rt	targetKey	blockType	margin	outcome	trialResp_keys	trialResp_corr	trialResp_rt
0	0	j	1	0.06254750455264002	j	8	0.1	0	j	1	0.663482970194309
0	1	n/a	n/a	n/a	j	8	0.11	1	j	1	0.5456824947759742
0	2	n/a	n/a	n/a	f	8	0.1	1	f	1	0.4847723116836278
0	3	n/a	n/a	n/a	j	8	0.09000000000000001	0	j	1	0.5839504293253412
0	4	n/a	n/a	n/a	j	8	0.1	1	j	1	0.5694411895674421
0	5	n/a	n/a	n/a	j	8	0.09000000000000001	1	j	1	0.5647869543317938
0	6	n/a	n/a	n/a	j	8	0.08000000000000002	1	f	0	0.6318527020775946
0	7	n/a	n/a	n/a	j	8	0.07000000000000002	1	j	1	0.5703535052016377
0	8	n/a	n/a	n/a	f	8	0.06000000000000002	1	j	0	0.5894057917175815
0	9	n/a	n/a	n/a	j	8	0.05000000000000002	1	j	1	0.6402614012331469
0	10	n/a	n/a	n/a	j	8	0.04000000000000001	2	j	1	0.5965500784222968
0	11	n/a	n/a	n/a	j	8	0.05000000000000002	1	j	1	0.5995353462494677
0	12	n/a	n/a	n/a	j	8	0.04000000000000001	1	j	1	0.5954379086469999
0	13	n/a	n/a	n/a	j	8	0.03000000000000001	1	j	1	0.5665035332349362
0	14	n/a	n/a	n/a	f	8	0.02000000000000001	1	f	1	0.4823190379247535
0	15	n/a	n/a	n/a	j	8	0.01000000000000001	0	j	1	0.56626490567578
0	16	n/a	n/a	n/a	j	8	0.02000000000000001	1	j	1	0.6023609588155523
0	17	n/a	n/a	n/a	j	8	0.01000000000000001	2	j	1	0.5893057220964693
0	18	n/a	n/a	n/a	j	8	0.02000000000000001	1	j	1	0.568460735361441
0	19	n/a	n/a	n/a	j	8	0.01000000000000001	0	j	1	0.5571847992250696
0	20	n/a	n/a	n/a	f	8	0.02000000000000001	0	f	1	0.5683746355643962
0	21	n/a	n/a	n/a	j	8	0.03000000000000001	1	j	1	0.6271528510696953
0	22	n/a	n/a	n/a	j	8	0.02000000000000001	2	j	1	0.581050976208644
0	23	n/a	n/a	n/a	j	8	0.03000000000000001	1	j	1	0.648242167342687
0	24	n/a	n/a	n/a	j	8	0.02000000000000001	2	j	1	0.8271298721228959
0	25	n/a	n/a	n/a	j	8	0.03000000000000001	2	j	1	0.5159746467397781
0	26	n/a	n/a	n/a	f	8	0.04000000000000001	0	f	1	0.5110005308524705
0	27	n/a	n/a	n/a	j	8	0.05000000000000002	0	j	1	0.5779690599592868
0	28	n/a	n/a	n/a	j	8	0.06000000000000002	1	j	1	0.5088859542738646
0	29	n/a	n/a	n/a	j	8	0.05000000000000002	0	j	1	0.7291525899199769
0	30	n/a	n/a	n/a	j	8	0.06000000000000002	2	j	1	0.5478364149603294
0	31	n/a	n/a	n/a	j	8	0.07000000000000002	1	j	1	0.5199959629972
0	32	n/a	n/a	n/a	f	8	0.06000000000000002	0	f	1	0.4186847373639466
0	33	n/a	n/a	n/a	j	8	0.07000000000000002	0	j	1	0.5748167243291391
0	34	n/a	n/a	n/a	j	8	0.08000000000000002	1	j	1	0.6577593299880391
0	35	n/a	n/a	n/a	j	8	0.07000000000000002	2	j	1	0.724615815342986
0	36	n/a	n/a	n/a	j	8	0.08000000000000002	2	j	1	0.464746128214756
0	37	n/a	n/a	n/a	j	8	0.09000000000000001	0	j	1	0.5314515112841036
0	38	n/a	n/a	n/a	f	8	0.1	1	f	1	0.5666455123573542
0	39	n/a	n/a	n/a	j	8	0.09000000000000001	1	j	1	0.5861676414206158
0	40	n/a	n/a	n/a	j	8	0.08000000000000002	1	j	1	0.5735568734817207
0	41	n/a	n/a	n/a	j	8	0.07000000000000002	1	j	1	0.5705373938108096
0	42	n/a	n/a	n/a	j	8	0.06000000000000002	1	j	1	0.6234876230155351
0	43	n/a	n/a	n/a	j	8	0.05000000000000002	1	j	1	0.5676219751767348
0	44	n/a	n/a	n/a	f	8	0.04000000000000001	1	f	1	0.550386622257065
0	45	n/a	n/a	n/a	j	8	0.03000000000000001	0	j	1	0.5454760833672481
0	46	n/a	n/a	n/a	j	8	0.04000000000000001	0	j	1	0.6308776647492778
0	47	n/a	n/a	n/a	j	8	0.05000000000000002	1	j	1	0.7873195539432345
0	48	n/a	n/a	n/a	j	8	0.04000000000000001	2	j	1	0.6062283218052471
0	49	n/a	n/a	n/a	j	8	0.05000000000000002	1	j	1	0.6009351805405458
0	50	n/a	n/a	n/a	f	8	0.04000000000000001	1	f	1	0.7651762280147523
0	51	n/a	n/a	n/a	j	8	0.03000000000000001	2	j	1	0.5295008664252236
0	52	n/a	n/a	n/a	j	8	0.04000000000000001	0	j	1	0.5100160852598492
0	53	n/a	n/a	n/a	j	8	0.05000000000000002	0	j	1	0.554803655424621
0	54	n/a	n/a	n/a	j	8	0.06000000000000002	1	j	1	0.6642022740561515
0	55	n/a	n/a	n/a	j	8	0.05000000000000002	2	j	1	0.6199153371126158
0	56	n/a	n/a	n/a	f	8	0.06000000000000002	1	f	1	0.5851800597447436
0	57	n/a	n/a	n/a	j	8	0.05000000000000002	1	j	1	0.5969637565576704
0	58	n/a	n/a	n/a	j	8	0.04000000000000001	1	j	1	0.5689009276538854
0	59	n/a	n/a	n/a	j	8	0.03000000000000001	1	j	1	0.6275260451802751
0	60	n/a	n/a	n/a	j	8	0.02000000000000001	2	j	1	0.5995165297354106
0	61	n/a	n/a	n/a	j	8	0.03000000000000001	1	j	1	0.5957629211043241
0	62	n/a	n/a	n/a	f	8	0.02000000000000001	1	j	0	0.05074185517150909
0	63	n/a	n/a	n/a	j	8	0.01000000000000001	1	f	0	0.5795034608163405
0	64	n/a	n/a	n/a	j	8	0.02000000000000001	1	j	1	0.6697534295963123
0	65	n/a	n/a	n/a	j	8	0.01000000000000001	2	j	1	0.6417279486195184
0	66	n/a	n/a	n/a	j	8	0.02000000000000001	2	j	1	0.6773692694405327
0	67	n/a	n/a	n/a	j	8	0.03000000000000001	2	j	1	0.5043084105855087
0	68	n/a	n/a	n/a	f	8	0.04000000000000001	0	f	1	0.5395146708906395
0	69	n/a	n/a	n/a	j	8	0.05000000000000002	0	j	1	0.5831376131245634
0	70	n/a	n/a	n/a	j	8	0.06000000000000002	1	j	1	0.6840631002996815
0	71	n/a	n/a	n/a	j	8	0.05000000000000002	2	j	1	0.6161580221960321
1	0	j	1	0.06656768042012118	j	10	0.1	0	j	1	1.068054184710491
1	1	n/a	n/a	n/a	f	10	0.11	1	f	1	1.101497965253657
1	2	n/a	n/a	n/a	j	10	0.1	2	j	1	0.94069121593202
1	3	n/a	n/a	n/a	j	10	0.11	1	j	1	0.993789411324542
1	4	n/a	n/a	n/a	j	10	0.1	1	j	1	1.141677771258401
1	5	n/a	n/a	n/a	f	10	0.09000000000000001	2	f	1	0.978580539507675
1	6	n/a	n/a	n/a	j	10	0.1	1	j	1	1.031518794567091
1	7	n/a	n/a	n/a	j	10	0.09000000000000001	1	j	1	1.019525265161064
1	8	n/a	n/a	n/a	j	10	0.08000000000000002	1	j	1	1.046421755527263
1	9	n/a	n/a	n/a	f	10	0.07000000000000002	1	f	1	1.010528407510719
1	10	n/a	n/a	n/a	j	10	0.06000000000000002	1	j	1	0.9962170262151631
1	11	n/a	n/a	n/a	j	10	0.05000000000000002	1	j	1	1.071201673636097
1	12	n/a	n/a	n/a	j	10	0.04000000000000001	2	j	1	1.002036174453679
1	13	n/a	n/a	n/a	f	10	0.05000000000000002	1	f	1	1.084291692386614
1	14	n/a	n/a	n/a	j	10	0.04000000000000001	2	j	1	0.913238783221459
1	15	n/a	n/a	n/a	j	10	0.05000000000000002	0	j	1	0.995681040774798
1	16	n/a	n/a	n/a	j	10	0.06000000000000002	1	j	1	0.9927200063393684
1	17	n/a	n/a	n/a	f	10	0.05000000000000002	1	f	1	0.8912556827272056
1	18	n/a	n/a	n/a	j	10	0.04000000000000001	0	j	1	1.070871244330192
1	19	n/a	n/a	n/a	j	10	0.05000000000000002	2	j	1	1.041339587260154
1	20	n/a	n/a	n/a	j	10	0.06000000000000002	1	j	1	0.9496966265433002
1	21	n/a	n/a	n/a	f	10	0.05000000000000002	1	f	1	0.931671265308978
1	22	n/a	n/a	n/a	j	10	0.04000000000000001	0	j	1	0.9197615549055627
1	23	n/a	n/a	n/a	j	10	0.05000000000000002	0	j	1	1.114609366399236
1	24	n/a	n/a	n/a	j	10	0.06000000000000002	2	j	1	1.230454350297805
1	25	n/a	n/a	n/a	f	10	0.07000000000000002	2	f	1	1.417352186341304
1	26	n/a	n/a	n/a	j	10	0.08000000000000002	2	j	1	0.6933413502993062
1	27	n/a	n/a	n/a	j	10	0.09000000000000001	0	j	1	0.7201910845178645
1	28	n/a	n/a	n/a	j	10	0.1	0	j	1	1.117012462811545
1	29	n/a	n/a	n/a	f	10	0.11	2	f	1	1.293226797672105
1	30	n/a	n/a	n/a	j	10	0.12	2	j	1	1.199900044419337
1	31	n/a	n/a	n/a	j	10	0.13	2	j	1	0.9715930570528144
1	32	n/a	n/a	n/a	j	10	0.14	1	j	1	0.7590161018015351
1	33	n/a	n/a	n/a	f	10	0.13	0	f	1	0.858776675973786
1	34	n/a	n/a	n/a	j	10	0.14	1	j	1	1.160088585849735
1	35	n/a	n/a	n/a	j	10	0.13	2	j	1	0.9578148101863917
1	36	n/a	n/a	n/a	j	10	0.14	1	j	1	0.8914233207178768
1	37	n/a	n/a	n/a	f	10	0.13	1	f	1	0.9519543226342648
1	38	n/a	n/a	n/a	j	10	0.12	1	j	1	1.548628418968292
1	39	n/a	n/a	n/a	j	10	0.11	2	j	1	0.8724032503523631
1	40	n/a	n/a	n/a	j	10	0.12	1	j	1	0.9891961872053798
1	41	n/a	n/a	n/a	f	10	0.11	1	f	1	0.8785539683158277
1	42	n/a	n/a	n/a	j	10	0.1	0	j	1	0.9884606327250367
1	43	n/a	n/a	n/a	j	10	0.11	1	j	1	1.361488819282386
1	44	n/a	n/a	n/a	j	10	0.1	2	j	1	0.8743701458442956
1	45	n/a	n/a	n/a	f	10	0.11	0	f	1	1.046331094170455
1	46	n/a	n/a	n/a	j	10	0.12	1	j	1	0.7640706155070802
1	47	n/a	n/a	n/a	j	10	0.11	0	j	1	1.009698200286948
1	48	n/a	n/a	n/a	j	10	0.12	1	j	1	1.238933753920719
1	49	n/a	n/a	n/a	f	10	0.11	2	f	1	0.9407051857706392
1	50	n/a	n/a	n/a	j	10	0.12	1	j	1	1.169203474317328
1	51	n/a	n/a	n/a	j	10	0.11	2	j	1	0.8839580129570095
1	52	n/a	n/a	n/a	j	10	0.12	1	j	1	1.161619850623538
1	53	n/a	n/a	n/a	f	10	0.11	2	f	1	0.9529821032192558
1	54	n/a	n/a	n/a	j	10	0.12	1	j	1	1.16368966671871
1	55	n/a	n/a	n/a	j	10	0.11	2	j	1	0.935806050823885
1	56	n/a	n/a	n/a	j	10	0.12	1	j	1	0.9064525803987635
1	57	n/a	n/a	n/a	f	10	0.11	1	f	1	1.045582140053739
1	58	n/a	n/a	n/a	j	10	0.1	1	j	1	0.9695087009167764
1	59	n/a	n/a	n/a	j	10	0.09000000000000002	1	j	1	0.9903796316357329
1	60	n/a	n/a	n/a	j	10	0.08000000000000003	1	j	1	0.9613813941250555
1	61	n/a	n/a	n/a	f	10	0.07000000000000003	1	f	1	0.956302361926646
1	62	n/a	n/a	n/a	j	10	0.06000000000000003	1	j	1	0.9365071083593648
1	63	n/a	n/a	n/a	j	10	0.05000000000000003	0	j	1	0.9170853340183385
1	64	n/a	n/a	n/a	j	10	0.06000000000000003	0	j	1	1.224337559062405
1	65	n/a	n/a	n/a	f	10	0.07000000000000003	2	f	1	1.254037994513055
1	66	n/a	n/a	n/a	j	10	0.08000000000000003	2	j	1	0.7851676294376375
1	67	n/a	n/a	n/a	j	10	0.09000000000000002	0	j	1	0.6439411693281727
1	68	n/a	n/a	n/a	j	10	0.1	0	j	1	1.32698304632504
1	69	n/a	n/a	n/a	f	10	0.11	2	f	1	1.116842258925317
1	70	n/a	n/a	n/a	j	10	0.12	2	j	1	1.1769373450079
1	71	n/a	n/a	n/a	j	10	0.13	2	j	1	0.5869043362908997
2	0	j	1	0.05970763704681303	j	4	0.1	2	j	1	0.5071981703513302
2	1	n/a	n/a	n/a	j	4	0.11	2	j	1	0.5085726308607263
2	2	n/a	n/a	n/a	f	4	0.12	2	f	1	0.3699648017354775
2	3	n/a	n/a	n/a	j	4	0.13	1	j	1	0.4669222861120943
2	4	n/a	n/a	n/a	j	4	0.12	1	j	1	0.3761229322408326
2	5	n/a	n/a	n/a	j	4	0.11	1	j	1	0.443734073676751
2	6	n/a	n/a	n/a	j	4	0.1	1	j	1	0.3930848755699117
2	7	n/a	n/a	n/a	j	4	0.09000000000000002	1	j	1	0.429777925266535
2	8	n/a	n/a	n/a	f	4	0.08000000000000003	1	f	1	0.4006747714447556
2	9	n/a	n/a	n/a	j	4	0.07000000000000003	1	j	1	0.3954206886992324
2	10	n/a	n/a	n/a	j	4	0.06000000000000003	1	j	1	0.3685501423024107
2	11	n/a	n/a	n/a	j	4	0.05000000000000003	1	j	1	0.4367417445319006
2	12	n/a	n/a	n/a	j	4	0.04000000000000003	2	j	1	0.4258253177831648
2	13	n/a	n/a	n/a	j	4	0.05000000000000003	1	j	1	0.4053940091689583
2	14	n/a	n/a	n/a	f	4	0.04000000000000003	1	f	1	0.4347010085039074
2	15	n/a	n/a	n/a	j	4	0.03000000000000003	1	f	0	0.4373005378729431
2	16	n/a	n/a	n/a	j	4	0.04000000000000003	2	j	1	0.4167768572806381
2	17	n/a	n/a	n/a	j	4	0.05000000000000003	1	j	1	0.4994223901594523
2	18	n/a	n/a	n/a	j	4	0.04000000000000003	2	j	1	0.4471179093816318
2	19	n/a	n/a	n/a	j	4	0.05000000000000003	2	j	1	0.3785097780200886
2	20	n/a	n/a	n/a	f	4	0.06000000000000003	1	f	1	0.4335694520268589
2	21	n/a	n/a	n/a	j	4	0.05000000000000003	1	j	1	0.5055297731450992
2	22	n/a	n/a	n/a	j	4	0.04000000000000003	2	j	1	0.2684742490382632
2	23	n/a	n/a	n/a	j	4	0.05000000000000003	0	j	1	0.5765977355185896
2	24	n/a	n/a	n/a	j	4	0.06000000000000003	2	j	1	0.4914165353839053
2	25	n/a	n/a	n/a	j	4	0.07000000000000003	2	j	1	0.5045114008098608
2	26	n/a	n/a	n/a	f	4	0.08000000000000003	2	f	1	0.5171982900938019
2	27	n/a	n/a	n/a	j	4	0.09000000000000002	2	j	1	0.4484521709964611
2	28	n/a	n/a	n/a	j	4	0.1	1	j	1	0.4292211276333546
2	29	n/a	n/a	n/a	j	4	0.09000000000000002	1	j	1	0.5364461542776553
2	30	n/a	n/a	n/a	j	4	0.08000000000000003	2	j	1	0.6529930510150734
2	31	n/a	n/a	n/a	j	4	0.09000000000000002	2	j	1	0.3932051871961448
2	32	n/a	n/a	n/a	f	4	0.1	1	f	1	0.4712381092394935
2	33	n/a	n/a	n/a	j	4	0.09000000000000002	1	j	1	0.5139749649242731
2	34	n/a	n/a	n/a	j	4	0.08000000000000003	2	j	1	0.4229312815441517
2	35	n/a	n/a	n/a	j	4	0.09000000000000002	1	j	1	0.4930869282834465
2	36	n/a	n/a	n/a	j	4	0.08000000000000003	2	j	1	0.3861863438942237
2	37	n/a	n/a	n/a	j	4	0.09000000000000002	1	j	1	0.4261203948699404
2	38	n/a	n/a	n/a	f	4	0.08000000000000003	1	f	1	0.398060416962835
2	39	n/a	n/a	n/a	j	4	0.07000000000000003	1	j	1	0.5180270718265092
2	40	n/a	n/a	n/a	j	4	0.06000000000000003	2	j	1	0.3211339627159759
2	41	n/a	n/a	n/a	j	4	0.07000000000000003	1	j	1	0.3955230391147779
2	42	n/a	n/a	n/a	j	4	0.06000000000000003	1	f	0	0.5509434198902454
2	43	n/a	n/a	n/a	j	4	0.05000000000000003	2	j	1	0.1548407752707135
2	44	n/a	n/a	n/a	f	4	0.06000000000000003	2	j	0	0.5831912116555031
2	45	n/a	n/a	n/a	j	4	0.07000000000000003	2	j	1	0.442900730369729
2	46	n/a	n/a	n/a	j	4	0.08000000000000003	1	j	1	0.4235128827422159
2	47	n/a	n/a	n/a	j	4	0.07000000000000003	1	j	1	0.6190435054741101
2	48	n/a	n/a	n/a	j	4	0.06000000000000003	1	f	0	0.7668238130281679
2	49	n/a	n/a	n/a	j	4	0.07000000000000003	2	j	1	0.9456804420624394
2	50	n/a	n/a	n/a	f	4	0.08000000000000003	2	j	0	0.7105815498944139
2	51	n/a	n/a	n/a	j	4	0.09000000000000002	2	f	0	0.7053035188582726
2	52	n/a	n/a	n/a	j	4	0.1	2	f	0	0.3917155468225246
2	53	n/a	n/a	n/a	j	4	0.11	1	j	1	0.6925288191850996
2	54	n/a	n/a	n/a	j	4	0.1	2	j	1	0.5205787046143087
2	55	n/a	n/a	n/a	j	4	0.11	2	j	1	0.5505006617167965
2	56	n/a	n/a	n/a	f	4	0.12	2	f	1	0.7702854806557298
2	57	n/a	n/a	n/a	j	4	0.13	2	j	1	0.4143959985813126
2	58	n/a	n/a	n/a	j	4	0.14	1	j	1	0.3453322796121938
2	59	n/a	n/a	n/a	j	4	0.13	1	j	1	1.037313709428417
2	60	n/a	n/a	n/a	j	4	0.12	2	j	1	0.585307498840848
2	61	n/a	n/a	n/a	j	4	0.13	2	j	1	0.3411966387939174
2	62	n/a	n/a	n/a	f	4	0.14	1	f	1	0.3923755501600681
2	63	n/a	n/a	n/a	j	4	0.13	1	j	1	0.4080890465702396
2	64	n/a	n/a	n/a	j	4	0.12	1	j	1	0.3812686775199836
2	65	n/a	n/a	n/a	j	4	0.11	1	j	1	0.3926786100200843
2	66	n/a	n/a	n/a	j	4	0.1	1	f	0	0.4991047902731225
2	67	n/a	n/a	n/a	j	4	0.09000000000000002	1	f	0	0.3211912675324129
2	68	n/a	n/a	n/a	f	4	0.1	1	j	0	0.5320060281228507
2	69	n/a	n/a	n/a	j	4	0.09000000000000002	2	j	1	0.7932096917647868
2	70	n/a	n/a	n/a	j	4	0.1	2	j	1	0.6140351777430624
2	71	n/a	n/a	n/a	j	4	0.11	2	j	1	0.8039798629179131
3	0	f	1	0.0336593151150737	f	7	0.1	2	j	0	0.6671701508457772
3	1	n/a	n/a	n/a	f	7	0.11	2	j	0	0.6641817469644593
3	2	n/a	n/a	n/a	j	7	0.1	2	f	0	0.7869141436822247
3	3	n/a	n/a	n/a	f	7	0.09000000000000001	2	j	0	0.6320465691533173
3	4	n/a	n/a	n/a	f	7	0.1	2	j	0	0.5389273676992161
3	5	n/a	n/a	n/a	f	7	0.09000000000000001	1	f	1	0.6325551851186901
3	6	n/a	n/a	n/a	f	7	0.08000000000000002	1	f	1	0.581417898152722
3	7	n/a	n/a	n/a	f	7	0.07000000000000002	1	f	1	0.5709921261441195
3	8	n/a	n/a	n/a	j	7	0.06000000000000002	1	j	1	0.5987273767095758
3	9	n/a	n/a	n/a	f	7	0.05000000000000002	1	f	1	0.5307045528606977
3	10	n/a	n/a	n/a	f	7	0.04000000000000001	0	f	1	0.6143174254102632
3	11	n/a	n/a	n/a	f	7	0.05000000000000002	1	f	1	0.6036436175782001
3	12	n/a	n/a	n/a	f	7	0.04000000000000001	1	j	0	0.5847105022839969
3	13	n/a	n/a	n/a	f	7	0.03000000000000001	1	f	1	0.6376208176661748
3	14	n/a	n/a	n/a	j	7	0.02000000000000001	2	j	1	0.7785496348224115
3	15	n/a	n/a	n/a	f	7	0.03000000000000001	2	f	1	0.5581276204029564
3	16	n/a	n/a	n/a	f	7	0.04000000000000001	1	f	1	0.5378970212332206
3	17	n/a	n/a	n/a	f	7	0.03000000000000001	0	f	1	0.5515603733365424
3	18	n/a	n/a	n/a	f	7	0.04000000000000001	1	f	1	0.9063687614107039
3	19	n/a	n/a	n/a	f	7	0.03000000000000001	2	f	1	0.5403078152885428
3	20	n/a	n/a	n/a	j	7	0.04000000000000001	0	j	1	0.688440504760365
3	21	n/a	n/a	n/a	f	7	0.05000000000000002	2	f	1	0.5392857366823591
3	22	n/a	n/a	n/a	f	7	0.06000000000000002	1	f	1	0.4862268849246902
3	23	n/a	n/a	n/a	f	7	0.05000000000000002	0	f	1	0.6281555429741275
3	24	n/a	n/a	n/a	f	7	0.06000000000000002	1	f	1	1.008238495269325
3	25	n/a	n/a	n/a	f	7	0.05000000000000002	2	f	1	0.4110794461594196
3	26	n/a	n/a	n/a	j	7	0.06000000000000002	0	j	1	0.477801364948391
3	27	n/a	n/a	n/a	f	7	0.07000000000000002	0	f	1	0.5950721271074144
3	28	n/a	n/a	n/a	f	7	0.08000000000000002	1	f	1	0.4786252999911085
3	29	n/a	n/a	n/a	f	7	0.07000000000000002	0	f	1	0.6436261353373993
3	30	n/a	n/a	n/a	f	7	0.08000000000000002	1	f	1	0.9698716314887861
3	31	n/a	n/a	n/a	f	7	0.07000000000000002	2	f	1	0.5039739898784319
3	32	n/a	n/a	n/a	j	7	0.08000000000000002	0	j	1	0.5408258395182202
3	33	n/a	n/a	n/a	f	7	0.09000000000000001	1	f	1	0.5999404713948024
3	34	n/a	n/a	n/a	f	7	0.08000000000000002	1	f	1	0.5247100689302897
3	35	n/a	n/a	n/a	f	7	0.07000000000000002	1	f	1	0.5839373147900915
3	36	n/a	n/a	n/a	f	7	0.06000000000000002	1	f	1	0.6113960196817061
3	37	n/a	n/a	n/a	f	7	0.05000000000000002	1	f	1	0.5368618280917872
3	38	n/a	n/a	n/a	j	7	0.04000000000000001	0	j	1	0.6123550914926454
3	39	n/a	n/a	n/a	f	7	0.05000000000000002	1	f	1	0.4741697785211727
3	40	n/a	n/a	n/a	f	7	0.04000000000000001	0	f	1	0.582379535844666
3	41	n/a	n/a	n/a	f	7	0.05000000000000002	1	f	1	0.6092620563867968
3	42	n/a	n/a	n/a	f	7	0.04000000000000001	1	f	1	0.7607583395729307
3	43	n/a	n/a	n/a	f	7	0.03000000000000001	2	f	1	0.5645600158313755
3	44	n/a	n/a	n/a	j	7	0.04000000000000001	1	j	1	0.5926071643043542
3	45	n/a	n/a	n/a	f	7	0.03000000000000001	1	f	1	0.6683940793009242
3	46	n/a	n/a	n/a	f	7	0.02000000000000001	2	f	1	0.5194739473954542
3	47	n/a	n/a	n/a	f	7	0.03000000000000001	0	f	1	0.6263009763497394
3	48	n/a	n/a	n/a	f	7	0.04000000000000001	1	f	1	0.8873686479346361
3	49	n/a	n/a	n/a	f	7	0.03000000000000001	2	f	1	0.5550248919607839
3	50	n/a	n/a	n/a	j	7	0.04000000000000001	1	j	1	0.563267663717852
3	51	n/a	n/a	n/a	f	7	0.03000000000000001	1	f	1	0.6152288857410895
3	52	n/a	n/a	n/a	f	7	0.02000000000000001	2	f	1	0.5861913046101108
3	53	n/a	n/a	n/a	f	7	0.03000000000000001	1	f	1	0.5260434752708534
3	54	n/a	n/a	n/a	f	7	0.02000000000000001	0	f	1	0.6812203818262788
3	55	n/a	n/a	n/a	f	7	0.03000000000000001	2	f	1	0.5000886656634975
3	56	n/a	n/a	n/a	j	7	0.04000000000000001	0	j	1	0.6408412918681279
3	57	n/a	n/a	n/a	f	7	0.05000000000000002	2	f	1	0.5499735143384896
3	58	n/a	n/a	n/a	f	7	0.06000000000000002	1	f	1	0.6966487795725698
3	59	n/a	n/a	n/a	f	7	0.05000000000000002	2	f	1	0.6037833159061847
3	60	n/a	n/a	n/a	f	7	0.06000000000000002	1	f	1	0.561851008591475
3	61	n/a	n/a	n/a	f	7	0.05000000000000002	1	f	1	0.6377910215524025
3	62	n/a	n/a	n/a	j	7	0.04000000000000001	2	j	1	0.5708219222578919
3	63	n/a	n/a	n/a	f	7	0.05000000000000002	1	f	1	0.5269096049159998
3	64	n/a	n/a	n/a	f	7	0.04000000000000001	0	f	1	0.5085663586942246
3	65	n/a	n/a	n/a	f	7	0.05000000000000002	0	f	1	0.5754821445589187
3	66	n/a	n/a	n/a	f	7	0.06000000000000002	1	f	1	0.5546787822240731
3	67	n/a	n/a	n/a	f	7	0.05000000000000002	1	f	1	0.5358215031592408
3	68	n/a	n/a	n/a	j	7	0.04000000000000001	0	j	1	0.5301449042308377
3	69	n/a	n/a	n/a	f	7	0.05000000000000002	0	f	1	0.5425911702768644
3	70	n/a	n/a	n/a	f	7	0.06000000000000002	1	f	1	0.4594946113502374
3	71	n/a	n/a	n/a	f	7	0.05000000000000002	0	f	1	0.5832034709019354
4	0	j	1	0.006465466853114776	j	2	0.1	2	j	1	0.1837492067134008
4	1	n/a	n/a	n/a	f	2	0.11	2	j	0	0.313760456701857
4	2	n/a	n/a	n/a	j	2	0.12	2	f	0	0.7909594082302647
4	3	n/a	n/a	n/a	j	2	0.11	2	j	1	0.523831680053263
4	4	n/a	n/a	n/a	j	2	0.12	2	j	1	0.4033059467619751
4	5	n/a	n/a	n/a	f	2	0.13	2	j	0	0.230684424896026
4	6	n/a	n/a	n/a	j	2	0.12	0	j	1	1.371576179211843
4	7	n/a	n/a	n/a	j	2	0.13	0	f	0	0.2728373985446524
4	8	n/a	n/a	n/a	j	2	0.14	0	f	0	0.08329612795205321
4	9	n/a	n/a	n/a	f	2	0.13	0	f	1	0.3597947631933494
4	10	n/a	n/a	n/a	j	2	0.14	0	f	0	0.1966199846210657
4	11	n/a	n/a	n/a	j	2	0.13	0	f	0	0.5045165325864218
4	12	n/a	n/a	n/a	j	2	0.14	1	j	1	0.5455239799339324
4	13	n/a	n/a	n/a	f	2	0.13	1	j	0	0.5561809669306967
4	14	n/a	n/a	n/a	j	2	0.14	1	f	0	0.4874382690177299
4	15	n/a	n/a	n/a	j	2	0.15	1	j	1	0.570401401782874
4	16	n/a	n/a	n/a	j	2	0.14	2	j	1	0.4551981749245897
4	17	n/a	n/a	n/a	f	2	0.15	2	j	0	0.4523871023557149
4	18	n/a	n/a	n/a	j	2	0.14	2	f	0	0.7044818645954365
4	19	n/a	n/a	n/a	j	2	0.13	2	j	1	0.3963712075346848
4	20	n/a	n/a	n/a	j	2	0.14	1	j	1	0.4400260808324674
4	21	n/a	n/a	n/a	f	2	0.13	1	j	0	0.5323330362589331
4	22	n/a	n/a	n/a	j	2	0.12	1	f	0	0.1600247237656731
4	23	n/a	n/a	n/a	j	2	0.13	0	j	1	0.5799946857587202
4	24	n/a	n/a	n/a	j	2	0.14	2	j	1	0.4727936074050376
4	25	n/a	n/a	n/a	f	2	0.15	2	j	0	0.4759402410418261
4	26	n/a	n/a	n/a	j	2	0.14	2	f	0	0.6537813487375388
4	27	n/a	n/a	n/a	j	2	0.13	2	j	1	0.4762809339154046
4	28	n/a	n/a	n/a	j	2	0.14	1	j	1	0.4908528953674249
4	29	n/a	n/a	n/a	f	2	0.13	1	j	0	0.8721837244083872
4	30	n/a	n/a	n/a	j	2	0.12	2	j	1	0.4914037059352268
4	31	n/a	n/a	n/a	j	2	0.13	1	j	1	0.4869402017066022
4	32	n/a	n/a	n/a	j	2	0.12	1	j	1	0.4417822884133784
4	33	n/a	n/a	n/a	f	2	0.11	1	j	0	0.5818934426788474
4	34	n/a	n/a	n/a	j	2	0.1	2	j	1	0.5469124102819478
4	35	n/a	n/a	n/a	j	2	0.11	2	j	1	0.6470159581076587
4	36	n/a	n/a	n/a	j	2	0.12	2	j	1	0.4843817265355028
4	37	n/a	n/a	n/a	f	2	0.13	2	j	0	0.4587630482565146
4	38	n/a	n/a	n/a	j	2	0.12	1	j	1	0.6667576131294481
4	39	n/a	n/a	n/a	j	2	0.11	2	j	1	0.4666178007610142
4	40	n/a	n/a	n/a	j	2	0.12	1	j	1	0.4454284148669103
4	41	n/a	n/a	n/a	f	2	0.11	1	j	0	0.4237546463846229
4	42	n/a	n/a	n/a	j	2	0.1	1	j	1	0.385583360271994
4	43	n/a	n/a	n/a	j	2	0.09000000000000002	1	j	1	0.4454375380155398
4	44	n/a	n/a	n/a	j	2	0.08000000000000003	1	j	1	0.3875417028029915
4	45	n/a	n/a	n/a	f	2	0.07000000000000003	1	j	0	0.4895454330398934
4	46	n/a	n/a	n/a	j	2	0.06000000000000003	2	j	1	0.343298956140643
4	47	n/a	n/a	n/a	j	2	0.07000000000000003	1	j	1	0.4195631262555253
4	48	n/a	n/a	n/a	j	2	0.06000000000000003	1	j	1	0.3846237182588084
4	49	n/a	n/a	n/a	f	2	0.05000000000000003	1	j	0	0.2760484644823009
4	50	n/a	n/a	n/a	j	2	0.04000000000000003	0	j	1	0.5225062565004919
4	51	n/a	n/a	n/a	j	2	0.05000000000000003	2	j	1	0.4064357595780166
4	52	n/a	n/a	n/a	j	2	0.06000000000000003	1	j	1	0.5533496523858048
4	53	n/a	n/a	n/a	f	2	0.05000000000000003	1	j	0	0.7160431844677078
4	54	n/a	n/a	n/a	j	2	0.06000000000000003	2	j	1	0.8808892112429021
4	55	n/a	n/a	n/a	j	2	0.07000000000000003	2	j	1	0.3729569119022926
4	56	n/a	n/a	n/a	j	2	0.08000000000000003	1	j	1	0.705216278671287
4	57	n/a	n/a	n/a	f	2	0.07000000000000003	2	f	1	0.6279069369629724
4	58	n/a	n/a	n/a	j	2	0.08000000000000003	2	j	1	0.6003244992753025
4	59	n/a	n/a	n/a	j	2	0.09000000000000002	2	j	1	0.4050638649350731
4	60	n/a	n/a	n/a	j	2	0.1	1	j	1	0.5839353190967813
4	61	n/a	n/a	n/a	f	2	0.09000000000000002	2	f	1	0.4830999230762245
4	62	n/a	n/a	n/a	j	2	0.1	1	j	1	0.5350562984240241
4	63	n/a	n/a	n/a	j	2	0.09000000000000002	2	j	1	0.4360329893388553
4	64	n/a	n/a	n/a	j	2	0.1	1	j	1	0.3989827110490296
4	65	n/a	n/a	n/a	f	2	0.09000000000000002	1	f	1	0.3619521045766305
4	66	n/a	n/a	n/a	j	2	0.08000000000000003	1	j	1	0.4128932436724426
4	67	n/a	n/a	n/a	j	2	0.07000000000000003	1	j	1	0.4155763069284149
4	68	n/a	n/a	n/a	j	2	0.06000000000000003	1	j	1	0.5225407534308033
4	69	n/a	n/a	n/a	f	2	0.05000000000000003	2	f	1	0.3098266657325439
4	70	n/a	n/a	n/a	j	2	0.06000000000000003	0	j	1	0.3618580220208969
4	71	n/a	n/a	n/a	j	2	0.07000000000000003	1	j	1	0.4143113242898835
5	0	f	1	0.05359312662039883	f	1	0.1	1	f	1	0.478969414049061
5	1	n/a	n/a	n/a	j	1	0.09000000000000001	1	j	1	0.4199685365165351
5	2	n/a	n/a	n/a	f	1	0.08000000000000002	1	f	1	0.3988803606334841
5	3	n/a	n/a	n/a	f	1	0.07000000000000002	1	f	1	0.3799709085433278
5	4	n/a	n/a	n/a	f	1	0.06000000000000002	1	f	1	0.3680706063751131
5	5	n/a	n/a	n/a	j	1	0.05000000000000002	1	j	1	0.347560610549408
5	6	n/a	n/a	n/a	f	1	0.04000000000000001	1	f	1	0.4000184743927093
5	7	n/a	n/a	n/a	f	1	0.03000000000000001	1	f	1	0.3317481849226169
5	8	n/a	n/a	n/a	f	1	0.02000000000000001	0	f	1	0.4069141551008215
5	9	n/a	n/a	n/a	j	1	0.03000000000000001	1	j	1	0.3168589086853899
5	10	n/a	n/a	n/a	f	1	0.02000000000000001	0	f	1	0.4319660572946304
5	11	n/a	n/a	n/a	f	1	0.03000000000000001	2	f	1	0.3630018377443776
5	12	n/a	n/a	n/a	f	1	0.04000000000000001	1	f	1	0.3908545489539392
5	13	n/a	n/a	n/a	j	1	0.03000000000000001	1	j	1	0.3079207813570974
5	14	n/a	n/a	n/a	f	1	0.02000000000000001	0	f	1	0.4386989466729574
5	15	n/a	n/a	n/a	f	1	0.03000000000000001	2	f	1	0.3395040081959451
5	16	n/a	n/a	n/a	f	1	0.04000000000000001	0	f	1	0.4896078696328914
5	17	n/a	n/a	n/a	j	1	0.05000000000000002	2	j	1	0.3577545973530505
5	18	n/a	n/a	n/a	f	1	0.06000000000000002	1	f	1	0.456789310395834
5	19	n/a	n/a	n/a	f	1	0.05000000000000002	2	f	1	0.3080624753783923
5	20	n/a	n/a	n/a	f	1	0.06000000000000002	0	f	1	0.3915815504587954
5	21	n/a	n/a	n/a	j	1	0.07000000000000002	1	j	1	0.3653236810350791
5	22	n/a	n/a	n/a	f	1	0.06000000000000002	1	f	1	0.3545381145522697
5	23	n/a	n/a	n/a	f	1	0.05000000000000002	1	f	1	0.2945761695154943
5	24	n/a	n/a	n/a	f	1	0.04000000000000001	0	f	1	0.3475038759061135
5	25	n/a	n/a	n/a	j	1	0.05000000000000002	1	j	1	0.3579584428807721
5	26	n/a	n/a	n/a	f	1	0.04000000000000001	1	f	1	0.394454774519545
5	27	n/a	n/a	n/a	f	1	0.03000000000000001	1	f	1	0.2813706858141813
5	28	n/a	n/a	n/a	f	1	0.02000000000000001	0	f	1	0.3665048446855508
5	29	n/a	n/a	n/a	j	1	0.03000000000000001	1	j	1	0.3374059673369629
5	30	n/a	n/a	n/a	f	1	0.02000000000000001	1	j	0	0.5011406796402298
5	31	n/a	n/a	n/a	f	1	0.03000000000000001	2	f	1	0.4804678924847394
5	32	n/a	n/a	n/a	f	1	0.04000000000000001	2	f	1	0.4122871239669621
5	33	n/a	n/a	n/a	j	1	0.05000000000000002	1	j	1	0.3844264300132636
5	34	n/a	n/a	n/a	f	1	0.04000000000000001	1	f	1	0.4762547048449051
5	35	n/a	n/a	n/a	f	1	0.03000000000000001	2	f	1	0.3340925509983208
5	36	n/a	n/a	n/a	f	1	0.04000000000000001	0	f	1	0.3377432390261674
5	37	n/a	n/a	n/a	j	1	0.05000000000000002	0	j	1	0.3571439160878072
5	38	n/a	n/a	n/a	f	1	0.06000000000000002	1	f	1	0.4242755216109799
5	39	n/a	n/a	n/a	f	1	0.05000000000000002	1	f	1	0.3627942859457107
5	40	n/a	n/a	n/a	f	1	0.04000000000000001	1	f	1	0.4297206204500981
5	41	n/a	n/a	n/a	j	1	0.03000000000000001	2	j	1	0.3371904327650554
5	42	n/a	n/a	n/a	f	1	0.04000000000000001	0	f	1	0.5070379449171014
5	43	n/a	n/a	n/a	f	1	0.05000000000000002	2	f	1	0.1858024870889494
5	44	n/a	n/a	n/a	f	1	0.06000000000000002	0	f	1	0.5990652186010266
5	45	n/a	n/a	n/a	j	1	0.07000000000000002	2	j	1	0.4429745709057897
5	46	n/a	n/a	n/a	f	1	0.08000000000000002	1	f	1	0.4629146545921685
5	47	n/a	n/a	n/a	f	1	0.07000000000000002	2	f	1	0.292062169755809
5	48	n/a	n/a	n/a	f	1	0.08000000000000002	0	f	1	0.3922560938372044
5	49	n/a	n/a	n/a	j	1	0.09000000000000001	1	j	1	0.6038366293505533
5	50	n/a	n/a	n/a	f	1	0.08000000000000002	2	f	1	0.4350194636790548
5	51	n/a	n/a	n/a	f	1	0.09000000000000001	1	f	1	0.3628421825123951
5	52	n/a	n/a	n/a	f	1	0.08000000000000002	1	f	1	0.4308604447869584
5	53	n/a	n/a	n/a	j	1	0.07000000000000002	1	j	1	0.3068667717016069
5	54	n/a	n/a	n/a	f	1	0.06000000000000002	0	f	1	0.3735125691455323
5	55	n/a	n/a	n/a	f	1	0.07000000000000002	1	f	1	0.3467158632993232
5	56	n/a	n/a	n/a	f	1	0.06000000000000002	1	f	1	0.4090019323921297
5	57	n/a	n/a	n/a	j	1	0.05000000000000002	1	j	1	0.365666654688539
5	58	n/a	n/a	n/a	f	1	0.04000000000000001	1	f	1	0.3773482861870434
5	59	n/a	n/a	n/a	f	1	0.03000000000000001	1	f	1	0.3528124125150498
5	60	n/a	n/a	n/a	f	1	0.02000000000000001	0	f	1	0.3816082300036214
5	61	n/a	n/a	n/a	j	1	0.03000000000000001	1	j	1	0.3123854259902146
5	62	n/a	n/a	n/a	f	1	0.02000000000000001	0	f	1	0.3427216314157704
5	63	n/a	n/a	n/a	f	1	0.03000000000000001	0	f	1	0.2828249739541207
5	64	n/a	n/a	n/a	f	1	0.04000000000000001	0	f	1	0.3185569561464945
5	65	n/a	n/a	n/a	j	1	0.05000000000000002	0	j	1	0.3225477668602252
5	66	n/a	n/a	n/a	f	1	0.06000000000000002	0	f	1	0.3602024542487925
5	67	n/a	n/a	n/a	f	1	0.07000000000000002	1	f	1	0.158476067968877
5	68	n/a	n/a	n/a	f	1	0.06000000000000002	0	f	1	0.4675383842550218
5	69	n/a	n/a	n/a	j	1	0.07000000000000002	2	j	1	0.3295167179021519
5	70	n/a	n/a	n/a	f	1	0.08000000000000002	1	f	1	0.3894250643788837
5	71	n/a	n/a	n/a	f	1	0.07000000000000002	1	f	1	0.3457770334789529
6	0	f	1	4.79545227761264	f	9	0.1	0	f	1	0.8377050358103588
6	1	n/a	n/a	n/a	j	9	0.11	0	j	1	1.33641924096446
6	2	n/a	n/a	n/a	f	9	0.12	2	f	1	1.284534995575086
6	3	n/a	n/a	n/a	f	9	0.13	2	f	1	1.351331895290059
6	4	n/a	n/a	n/a	f	9	0.14	2	f	1	1.002446146289003
6	5	n/a	n/a	n/a	j	9	0.15	1	j	1	1.245026881952072
6	6	n/a	n/a	n/a	f	9	0.14	2	f	1	1.135608876604238
6	7	n/a	n/a	n/a	f	9	0.15	2	f	1	0.6417307996161981
6	8	n/a	n/a	n/a	f	9	0.16	0	f	1	1.149008227366721
6	9	n/a	n/a	n/a	j	9	0.17	1	j	1	0.9447715476126177
6	10	n/a	n/a	n/a	f	9	0.16	1	f	1	0.8919878160231747
6	11	n/a	n/a	n/a	f	9	0.15	1	j	0	1.183872369336314
6	12	n/a	n/a	n/a	f	9	0.14	2	f	1	1.282836377911735
6	13	n/a	n/a	n/a	j	9	0.15	2	j	1	0.9658046994591132
6	14	n/a	n/a	n/a	f	9	0.16	1	f	1	0.8497880861978047
6	15	n/a	n/a	n/a	f	9	0.15	1	f	1	0.8927538760472089
6	16	n/a	n/a	n/a	f	9	0.14	1	f	1	0.8408921534573892
6	17	n/a	n/a	n/a	j	9	0.13	0	j	1	0.7074135338625638
6	18	n/a	n/a	n/a	f	9	0.14	0	f	1	0.7523077309015207
6	19	n/a	n/a	n/a	f	9	0.15	0	f	1	0.8594609127030708
6	20	n/a	n/a	n/a	f	9	0.16	0	j	0	1.344701356327278
6	21	n/a	n/a	n/a	j	9	0.15	0	f	0	0.9793910749285715
6	22	n/a	n/a	n/a	f	9	0.16	1	f	1	1.136569088805118
6	23	n/a	n/a	n/a	f	9	0.15	1	f	1	1.268885646364652
6	24	n/a	n/a	n/a	f	9	0.14	2	f	1	0.8662072017032187
6	25	n/a	n/a	n/a	j	9	0.15	1	j	1	0.9262925944494782
6	26	n/a	n/a	n/a	f	9	0.14	1	f	1	0.7790037969389232
6	27	n/a	n/a	n/a	f	9	0.13	0	f	1	0.781677737046266
6	28	n/a	n/a	n/a	f	9	0.14	0	f	1	0.7089693171146791
6	29	n/a	n/a	n/a	j	9	0.15	0	j	1	1.29000090660702
6	30	n/a	n/a	n/a	f	9	0.16	2	f	1	0.655548104972695
6	31	n/a	n/a	n/a	f	9	0.17	0	f	1	1.252856545776012
6	32	n/a	n/a	n/a	f	9	0.18	2	f	1	0.8007836221077014
6	33	n/a	n/a	n/a	j	9	0.1900000000000001	1	j	1	1.101957544247853
6	34	n/a	n/a	n/a	f	9	0.18	1	f	1	0.8272427711781347
6	35	n/a	n/a	n/a	f	9	0.17	1	f	1	0.8484917426831089
6	36	n/a	n/a	n/a	f	9	0.16	1	f	1	0.7886418414127547
6	37	n/a	n/a	n/a	j	9	0.15	0	j	1	0.7284606555331266
6	38	n/a	n/a	n/a	f	9	0.16	0	f	1	0.7004973260627594
6	39	n/a	n/a	n/a	f	9	0.17	0	f	1	0.8235364889114862
6	40	n/a	n/a	n/a	f	9	0.18	1	f	1	1.547098009497859
6	41	n/a	n/a	n/a	j	9	0.17	2	j	1	0.9383491306361975
6	42	n/a	n/a	n/a	f	9	0.18	1	f	1	0.5813289473735495
6	43	n/a	n/a	n/a	f	9	0.17	0	f	1	0.7284250182128744
6	44	n/a	n/a	n/a	f	9	0.18	0	f	1	1.020181847314234
6	45	n/a	n/a	n/a	j	9	0.1900000000000001	1	j	1	0.6769821054913336
6	46	n/a	n/a	n/a	f	9	0.18	0	f	1	0.7133395941054914
6	47	n/a	n/a	n/a	f	9	0.1900000000000001	0	f	1	0.7717628617974697
6	48	n/a	n/a	n/a	f	9	0.2000000000000001	0	f	1	0.9346337252354715
6	49	n/a	n/a	n/a	j	9	0.2100000000000001	1	j	1	1.21298835259222
6	50	n/a	n/a	n/a	f	9	0.2000000000000001	2	f	1	0.7197999291820452
6	51	n/a	n/a	n/a	f	9	0.2100000000000001	0	f	1	0.8355260269454448
6	52	n/a	n/a	n/a	f	9	0.2200000000000001	1	f	1	1.008499360526912
6	53	n/a	n/a	n/a	j	9	0.2100000000000001	1	j	1	0.9728258235554677
6	54	n/a	n/a	n/a	f	9	0.2000000000000001	1	f	1	0.9827022104873322
6	55	n/a	n/a	n/a	f	9	0.1900000000000001	1	f	1	0.8736388678371441
6	56	n/a	n/a	n/a	f	9	0.18	1	f	1	0.9747017725749174
6	57	n/a	n/a	n/a	j	9	0.17	1	j	1	0.9142796783416998
6	58	n/a	n/a	n/a	f	9	0.16	1	f	1	0.8860192760912469
6	59	n/a	n/a	n/a	f	9	0.15	1	f	1	0.9144219425652409
6	60	n/a	n/a	n/a	f	9	0.14	1	f	1	0.9733965910272673
6	61	n/a	n/a	n/a	j	9	0.13	1	j	1	0.8363673530111555
6	62	n/a	n/a	n/a	f	9	0.12	0	f	1	0.8432581870438298
6	63	n/a	n/a	n/a	f	9	0.13	0	f	1	0.9916545927408151
6	64	n/a	n/a	n/a	f	9	0.14	1	f	1	1.035118164829328
6	65	n/a	n/a	n/a	j	9	0.13	1	j	1	0.8332021879614331
6	66	n/a	n/a	n/a	f	9	0.12	0	f	1	0.9241050326090772
6	67	n/a	n/a	n/a	f	9	0.13	1	f	1	1.145158825587714
6	68	n/a	n/a	n/a	f	9	0.12	2	f	1	1.043995281041134
6	69	n/a	n/a	n/a	j	9	0.13	1	j	1	0.85483775321336
6	70	n/a	n/a	n/a	f	9	0.12	0	f	1	0.8098568861896638
6	71	n/a	n/a	n/a	f	9	0.13	0	f	1	1.134886721760267
7	0	f	1	0.1016647479555104	f	3	0.1	2	f	1	0.5031098559265956
7	1	n/a	n/a	n/a	f	3	0.11	2	f	1	0.4730345157586271
7	2	n/a	n/a	n/a	j	3	0.12	1	j	1	0.4197327599395066
7	3	n/a	n/a	n/a	f	3	0.11	1	f	1	0.5040928760136012
7	4	n/a	n/a	n/a	f	3	0.1	2	f	1	0.4024298386502778
7	5	n/a	n/a	n/a	f	3	0.11	1	f	1	0.5346158210304566
7	6	n/a	n/a	n/a	f	3	0.1	2	f	1	0.5489257768640528
7	7	n/a	n/a	n/a	f	3	0.11	2	j	0	0.4028811497992137
7	8	n/a	n/a	n/a	j	3	0.12	2	f	0	0.7828090084367432
7	9	n/a	n/a	n/a	f	3	0.11	2	f	1	0.6028578857512912
7	10	n/a	n/a	n/a	f	3	0.12	2	f	1	0.4308379219874041
7	11	n/a	n/a	n/a	f	3	0.13	1	f	1	0.6664502767962404
7	12	n/a	n/a	n/a	f	3	0.12	1	j	0	1.055484756070655
7	13	n/a	n/a	n/a	f	3	0.13	2	f	1	0.8756088994123274
7	14	n/a	n/a	n/a	j	3	0.14	2	j	1	0.9582130929920822
7	15	n/a	n/a	n/a	f	3	0.15	2	f	1	0.6175521545228548
7	16	n/a	n/a	n/a	f	3	0.16	2	j	0	0.4215214687719708
7	17	n/a	n/a	n/a	f	3	0.17	1	f	1	0.7604196423781104
7	18	n/a	n/a	n/a	f	3	0.16	2	f	1	0.5243665250745835
7	19	n/a	n/a	n/a	f	3	0.17	1	f	1	0.4254304561764002
7	20	n/a	n/a	n/a	j	3	0.16	1	j	1	0.4543123734620167
7	21	n/a	n/a	n/a	f	3	0.15	1	f	1	0.4570456140791066
7	22	n/a	n/a	n/a	f	3	0.14	1	f	1	0.4624277061084285
7	23	n/a	n/a	n/a	f	3	0.13	1	f	1	0.4970543608942535
7	24	n/a	n/a	n/a	f	3	0.12	1	j	0	0.531813871639315
7	25	n/a	n/a	n/a	f	3	0.11	2	f	1	1.3832834695786
7	26	n/a	n/a	n/a	j	3	0.12	2	j	1	0.7241183182195527
7	27	n/a	n/a	n/a	f	3	0.13	2	f	1	0.432313592536957
7	28	n/a	n/a	n/a	f	3	0.14	1	f	1	0.3581497440754902
7	29	n/a	n/a	n/a	f	3	0.13	1	f	1	0.4120000296534272
7	30	n/a	n/a	n/a	f	3	0.12	1	f	1	0.6004476618836634
7	31	n/a	n/a	n/a	f	3	0.11	2	f	1	0.3569731419993332
7	32	n/a	n/a	n/a	j	3	0.12	1	j	1	0.3779583972645923
7	33	n/a	n/a	n/a	f	3	0.11	1	f	1	0.4167161312798271
7	34	n/a	n/a	n/a	f	3	0.1	1	f	1	0.3636575646087294
7	35	n/a	n/a	n/a	f	3	0.09000000000000002	1	f	1	0.4400417612487217
7	36	n/a	n/a	n/a	f	3	0.08000000000000003	1	f	1	0.4039799199381378
7	37	n/a	n/a	n/a	f	3	0.07000000000000003	1	f	1	0.3695981648779707
7	38	n/a	n/a	n/a	j	3	0.06000000000000003	1	j	1	0.3618719918449642
7	39	n/a	n/a	n/a	f	3	0.05000000000000003	1	f	1	0.3988173538382398
7	40	n/a	n/a	n/a	f	3	0.04000000000000003	1	f	1	0.352929302942357
7	41	n/a	n/a	n/a	f	3	0.03000000000000003	0	f	1	0.3718247852229979
7	42	n/a	n/a	n/a	f	3	0.04000000000000003	1	f	1	0.624914256593911
7	43	n/a	n/a	n/a	f	3	0.03000000000000003	2	f	1	0.2606522828573361
7	44	n/a	n/a	n/a	j	3	0.04000000000000003	0	j	1	0.5355181582272053
7	45	n/a	n/a	n/a	f	3	0.05000000000000003	2	f	1	0.5786795257590711
7	46	n/a	n/a	n/a	f	3	0.06000000000000003	2	f	1	0.3853296224988298
7	47	n/a	n/a	n/a	f	3	0.07000000000000003	1	f	1	0.5346078382717678
7	48	n/a	n/a	n/a	f	3	0.06000000000000003	1	j	0	0.4455960528721334
7	49	n/a	n/a	n/a	f	3	0.07000000000000003	1	f	1	0.5686993629205972
7	50	n/a	n/a	n/a	j	3	0.06000000000000003	1	f	0	0.5085347127605928
7	51	n/a	n/a	n/a	f	3	0.07000000000000003	2	f	1	0.8425175007869257
7	52	n/a	n/a	n/a	f	3	0.08000000000000003	2	f	1	0.6704624699050328
7	53	n/a	n/a	n/a	f	3	0.09000000000000002	2	f	1	0.5544067981245462
7	54	n/a	n/a	n/a	f	3	0.1	2	f	1	0.402085439505754
7	55	n/a	n/a	n/a	f	3	0.11	1	f	1	0.4024469445721479
7	56	n/a	n/a	n/a	j	3	0.1	1	j	1	0.4084228970750701
7	57	n/a	n/a	n/a	f	3	0.09000000000000002	1	f	1	0.3882399093563436
7	58	n/a	n/a	n/a	f	3	0.08000000000000003	1	f	1	0.4324840815243078
7	59	n/a	n/a	n/a	f	3	0.07000000000000003	1	f	1	0.3802962060872233
7	60	n/a	n/a	n/a	f	3	0.06000000000000003	1	f	1	0.3989447929343442
7	61	n/a	n/a	n/a	f	3	0.05000000000000003	1	f	1	0.4281326210475527
7	62	n/a	n/a	n/a	j	3	0.04000000000000003	2	j	1	0.387179057332105
7	63	n/a	n/a	n/a	f	3	0.05000000000000003	1	f	1	0.3854368195898132
7	64	n/a	n/a	n/a	f	3	0.04000000000000003	1	f	1	0.4127985909290146
7	65	n/a	n/a	n/a	f	3	0.03000000000000003	1	f	1	0.4342246086889645
7	66	n/a	n/a	n/a	f	3	0.02000000000000002	2	f	1	0.3897668976424029
7	67	n/a	n/a	n/a	f	3	0.03000000000000003	1	f	1	0.3772462208726211
7	68	n/a	n/a	n/a	j	3	0.02000000000000002	1	j	1	0.3971201616514008
7	69	n/a	n/a	n/a	f	3	0.01000000000000002	2	f	1	0.4189008421235485
7	70	n/a	n/a	n/a	f	3	0.02000000000000002	2	f	1	0.3749896651715972
7	71	n/a	n/a	n/a	f	3	0.03000000000000003	1	f	1	0.371030500420602
8	0	f	1	2.833025426807581	f	11	0.1	0	f	1	0.9401577963872114
8	1	n/a	n/a	n/a	f	11	0.11	1	f	1	0.9131615214864723
8	2	n/a	n/a	n/a	j	11	0.1	1	f	0	1.006839231165941
8	3	n/a	n/a	n/a	f	11	0.09000000000000001	1	f	1	1.009783729881747
8	4	n/a	n/a	n/a	f	11	0.08000000000000002	1	f	1	0.9052537406387273
8	5	n/a	n/a	n/a	f	11	0.07000000000000002	0	f	1	0.9580280639784178
8	6	n/a	n/a	n/a	f	11	0.08000000000000002	1	f	1	0.8979520794819109
8	7	n/a	n/a	n/a	f	11	0.07000000000000002	1	j	0	0.9018237189447973
8	8	n/a	n/a	n/a	j	11	0.08000000000000002	1	f	0	0.9878516620374285
8	9	n/a	n/a	n/a	f	11	0.09000000000000001	1	f	1	0.8568955951777752
8	10	n/a	n/a	n/a	f	11	0.08000000000000002	0	f	1	0.8916944495285861
8	11	n/a	n/a	n/a	f	11	0.09000000000000001	0	f	1	0.7768376175081357
8	12	n/a	n/a	n/a	f	11	0.1	0	f	1	1.108597206373815
8	13	n/a	n/a	n/a	f	11	0.11	2	f	1	1.128724029651494
8	14	n/a	n/a	n/a	j	11	0.12	2	j	1	0.8195562268665526
8	15	n/a	n/a	n/a	f	11	0.13	0	f	1	0.7826522041868884
8	16	n/a	n/a	n/a	f	11	0.14	0	j	0	1.131334677847917
8	17	n/a	n/a	n/a	f	11	0.15	1	f	1	0.9593654616764979
8	18	n/a	n/a	n/a	f	11	0.14	1	f	1	0.9242609815701144
8	19	n/a	n/a	n/a	f	11	0.13	1	f	1	0.9049019289086573
8	20	n/a	n/a	n/a	j	11	0.12	1	j	1	0.8392477045272244
8	21	n/a	n/a	n/a	f	11	0.11	1	j	0	1.116144337458536
8	22	n/a	n/a	n/a	f	11	0.12	2	f	1	0.8248231390753062
8	23	n/a	n/a	n/a	f	11	0.13	0	f	1	0.8680455177091062
8	24	n/a	n/a	n/a	f	11	0.14	1	f	1	0.8406555215915432
8	25	n/a	n/a	n/a	f	11	0.13	0	f	1	0.987959144229535
8	26	n/a	n/a	n/a	j	11	0.14	1	j	1	0.7664454871410271
8	27	n/a	n/a	n/a	f	11	0.13	0	f	1	0.8260698753874749
8	28	n/a	n/a	n/a	f	11	0.14	0	f	1	0.9807920496241422
8	29	n/a	n/a	n/a	f	11	0.15	1	f	1	1.111595303620561
8	30	n/a	n/a	n/a	f	11	0.14	1	f	1	0.9554670229263138
8	31	n/a	n/a	n/a	f	11	0.13	1	f	1	0.8675907853757963
8	32	n/a	n/a	n/a	j	11	0.12	1	j	1	0.9279986246838234
8	33	n/a	n/a	n/a	f	11	0.11	1	f	1	0.9105808086460456
8	34	n/a	n/a	n/a	f	11	0.1	1	f	1	0.9504068072419614
8	35	n/a	n/a	n/a	f	11	0.09000000000000002	1	f	1	0.9297109270846704
8	36	n/a	n/a	n/a	f	11	0.08000000000000003	1	f	1	0.9173792707006214
8	37	n/a	n/a	n/a	f	11	0.07000000000000003	1	f	1	0.8652769248583354
8	38	n/a	n/a	n/a	j	11	0.06000000000000003	0	j	1	0.9078900477179559
8	39	n/a	n/a	n/a	f	11	0.07000000000000003	0	f	1	0.9603028659912525
8	40	n/a	n/a	n/a	f	11	0.08000000000000003	1	f	1	1.07605918419722
8	41	n/a	n/a	n/a	f	11	0.07000000000000003	2	f	1	0.9762090890581021
8	42	n/a	n/a	n/a	f	11	0.08000000000000003	1	f	1	0.9159075915522408
8	43	n/a	n/a	n/a	f	11	0.07000000000000003	0	f	1	0.9589252693695016
8	44	n/a	n/a	n/a	j	11	0.08000000000000003	1	j	1	0.946695678299875
8	45	n/a	n/a	n/a	f	11	0.07000000000000003	1	f	1	0.7978673481557053
8	46	n/a	n/a	n/a	f	11	0.06000000000000003	0	f	1	0.9231066171923885
8	47	n/a	n/a	n/a	f	11	0.07000000000000003	1	f	1	0.9054413355479483
8	48	n/a	n/a	n/a	f	11	0.06000000000000003	0	f	1	0.9001849719934398
8	49	n/a	n/a	n/a	f	11	0.07000000000000003	0	f	1	1.08745087038551
8	50	n/a	n/a	n/a	j	11	0.08000000000000003	2	j	1	1.188556824999978
8	51	n/a	n/a	n/a	f	11	0.09000000000000002	2	f	1	0.7695450795145007
8	52	n/a	n/a	n/a	f	11	0.1	0	f	1	0.6144839230109937
8	53	n/a	n/a	n/a	f	11	0.11	0	f	1	0.8794240893621463
8	54	n/a	n/a	n/a	f	11	0.12	1	f	1	1.043138844746863
8	55	n/a	n/a	n/a	f	11	0.11	1	f	1	0.9355517428339226
8	56	n/a	n/a	n/a	j	11	0.1	1	j	1	0.8822890455339802
8	57	n/a	n/a	n/a	f	11	0.09000000000000002	0	f	1	1.101182361060637
8	58	n/a	n/a	n/a	f	11	0.1	2	f	1	0.7693095880240435
8	59	n/a	n/a	n/a	f	11	0.11	0	f	1	0.8676979824667796
8	60	n/a	n/a	n/a	f	11	0.12	1	f	1	1.32312024490966
8	61	n/a	n/a	n/a	f	11	0.11	2	f	1	0.8571704302448779
8	62	n/a	n/a	n/a	j	11	0.12	0	j	1	0.7956127881479915
8	63	n/a	n/a	n/a	f	11	0.13	0	f	1	1.05684097026824
8	64	n/a	n/a	n/a	f	11	0.14	1	f	1	0.6917901286215056
8	65	n/a	n/a	n/a	f	11	0.13	0	f	1	0.8166972577455454
8	66	n/a	n/a	n/a	f	11	0.14	0	f	1	1.027728123095585
8	67	n/a	n/a	n/a	f	11	0.15	1	f	1	1.153752553771483
8	68	n/a	n/a	n/a	j	11	0.14	2	j	1	0.9265939437173074
8	69	n/a	n/a	n/a	f	11	0.15	1	f	1	0.9615190967742819
8	70	n/a	n/a	n/a	f	11	0.14	1	f	1	0.885439670571941
8	71	n/a	n/a	n/a	f	11	0.13	1	f	1	1.056663068709895
9	0	f	1	0.03019080511876382	f	5	0.1	2	f	1	0.6715415682265302
9	1	n/a	n/a	n/a	j	5	0.11	1	j	1	0.6010007532313466
9	2	n/a	n/a	n/a	f	5	0.1	1	f	1	0.566421995012206
9	3	n/a	n/a	n/a	f	5	0.09000000000000001	1	f	1	0.6183746640745085
9	4	n/a	n/a	n/a	f	5	0.08000000000000002	1	f	1	0.6329249580448959
9	5	n/a	n/a	n/a	j	5	0.07000000000000002	1	j	1	0.5903528893977636
9	6	n/a	n/a	n/a	f	5	0.06000000000000002	1	f	1	0.5699994126916863
9	7	n/a	n/a	n/a	f	5	0.05000000000000002	1	f	1	0.6153968088328838
9	8	n/a	n/a	n/a	f	5	0.04000000000000001	1	f	1	0.5871155943750637
9	9	n/a	n/a	n/a	j	5	0.03000000000000001	1	j	1	0.5270313420332968
9	10	n/a	n/a	n/a	f	5	0.02000000000000001	0	f	1	0.5781372681522043
9	11	n/a	n/a	n/a	f	5	0.03000000000000001	1	f	1	0.5518685649585677
9	12	n/a	n/a	n/a	f	5	0.02000000000000001	0	f	1	0.6025405709515326
9	13	n/a	n/a	n/a	j	5	0.03000000000000001	1	j	1	0.5839777988003334
9	14	n/a	n/a	n/a	f	5	0.02000000000000001	1	f	1	0.5469508985988796
9	15	n/a	n/a	n/a	f	5	0.01000000000000001	0	f	1	0.6699250589736039
9	16	n/a	n/a	n/a	f	5	0.02000000000000001	2	f	1	0.6655476545129204
9	17	n/a	n/a	n/a	j	5	0.03000000000000001	2	j	1	0.5449520720721921
9	18	n/a	n/a	n/a	f	5	0.04000000000000001	0	f	1	0.6363863405858865
9	19	n/a	n/a	n/a	f	5	0.05000000000000002	2	f	1	0.5999883679760387
9	20	n/a	n/a	n/a	f	5	0.06000000000000002	1	f	1	0.6198303777055116
9	21	n/a	n/a	n/a	j	5	0.05000000000000002	1	j	1	0.57688226395112
9	22	n/a	n/a	n/a	f	5	0.04000000000000001	1	f	1	0.5477745485550258
9	23	n/a	n/a	n/a	f	5	0.03000000000000001	0	f	1	0.6186620435182704
9	24	n/a	n/a	n/a	f	5	0.04000000000000001	1	f	1	0.6372404961002758
9	25	n/a	n/a	n/a	j	5	0.03000000000000001	2	j	1	0.5927836403570836
9	26	n/a	n/a	n/a	f	5	0.04000000000000001	1	f	1	0.6036210947786458
9	27	n/a	n/a	n/a	f	5	0.03000000000000001	1	f	1	0.6262145914515713
9	28	n/a	n/a	n/a	f	5	0.02000000000000001	2	f	1	0.6155054314149311
9	29	n/a	n/a	n/a	j	5	0.03000000000000001	1	j	1	0.5554431316559203
9	30	n/a	n/a	n/a	f	5	0.02000000000000001	0	f	1	0.6154053617938189
9	31	n/a	n/a	n/a	f	5	0.03000000000000001	2	f	1	0.6104072976158932
9	32	n/a	n/a	n/a	f	5	0.04000000000000001	1	f	1	0.6233844172966201
9	33	n/a	n/a	n/a	j	5	0.03000000000000001	2	j	1	0.6063312424230389
9	34	n/a	n/a	n/a	f	5	0.04000000000000001	1	f	1	0.6502247432508739
9	35	n/a	n/a	n/a	f	5	0.03000000000000001	2	f	1	0.5973121470888145
9	36	n/a	n/a	n/a	f	5	0.04000000000000001	1	f	1	0.6048778095719172
9	37	n/a	n/a	n/a	j	5	0.03000000000000001	1	j	1	0.6352237083483487
9	38	n/a	n/a	n/a	f	5	0.02000000000000001	2	f	1	0.5348461807298008
9	39	n/a	n/a	n/a	f	5	0.03000000000000001	0	f	1	0.5791328325867653
9	40	n/a	n/a	n/a	f	5	0.04000000000000001	1	f	1	0.6172516605583951
9	41	n/a	n/a	n/a	j	5	0.03000000000000001	2	j	1	0.5472240230883472
9	42	n/a	n/a	n/a	f	5	0.04000000000000001	0	f	1	0.5589481342758518
9	43	n/a	n/a	n/a	f	5	0.05000000000000002	1	f	1	0.5860148285428295
9	44	n/a	n/a	n/a	f	5	0.04000000000000001	1	f	1	0.5489805157994851
9	45	n/a	n/a	n/a	j	5	0.03000000000000001	0	j	1	0.5366491445020074
9	46	n/a	n/a	n/a	f	5	0.04000000000000001	0	f	1	0.7318672991241328
9	47	n/a	n/a	n/a	f	5	0.05000000000000002	2	f	1	0.5539802905695979
9	48	n/a	n/a	n/a	f	5	0.06000000000000002	1	f	1	0.5828314171812963
9	49	n/a	n/a	n/a	j	5	0.05000000000000002	1	j	1	0.5649933657550719
9	50	n/a	n/a	n/a	f	5	0.04000000000000001	1	f	1	0.6388752516650129
9	51	n/a	n/a	n/a	f	5	0.03000000000000001	2	f	1	0.5955422547558555
9	52	n/a	n/a	n/a	f	5	0.04000000000000001	1	f	1	0.5206454176950501
9	53	n/a	n/a	n/a	j	5	0.03000000000000001	0	j	1	0.5873536517319735
9	54	n/a	n/a	n/a	f	5	0.04000000000000001	0	j	0	0.6003464518580586
9	55	n/a	n/a	n/a	f	5	0.03000000000000001	1	f	1	0.6444993924669689
9	56	n/a	n/a	n/a	f	5	0.02000000000000001	2	f	1	0.5935824867337942
9	57	n/a	n/a	n/a	j	5	0.03000000000000001	1	j	1	0.6225530696829082
9	58	n/a	n/a	n/a	f	5	0.02000000000000001	2	f	1	0.5632531236915383
9	59	n/a	n/a	n/a	f	5	0.03000000000000001	1	f	1	0.5613786001631524
9	60	n/a	n/a	n/a	f	5	0.02000000000000001	0	f	1	0.5834794463880826
9	61	n/a	n/a	n/a	j	5	0.03000000000000001	1	j	1	0.5790840807312634
9	62	n/a	n/a	n/a	f	5	0.02000000000000001	1	f	1	0.5353944254020462
9	63	n/a	n/a	n/a	f	5	0.01000000000000001	0	f	1	0.5822826023068046
9	64	n/a	n/a	n/a	f	5	0.02000000000000001	1	f	1	0.5872424632834736
9	65	n/a	n/a	n/a	j	5	0.01000000000000001	1	j	1	0.5432198127673473
9	66	n/a	n/a	n/a	f	5	1.040834085586084e-17	0	f	1	0.5298161855025683
9	67	n/a	n/a	n/a	f	5	0.01000000000000001	0	f	1	0.7009660282055847
9	68	n/a	n/a	n/a	f	5	0.02000000000000001	2	f	1	0.6421501797012752
9	69	n/a	n/a	n/a	j	5	0.03000000000000001	2	j	1	0.517137564078439
9	70	n/a	n/a	n/a	f	5	0.04000000000000001	0	f	1	0.5292642345448257
9	71	n/a	n/a	n/a	f	5	0.05000000000000002	0	f	1	0.5969751604861813
10	0	j	1	0.02068447619967628	j	6	0.1	1	j	1	0.6461720661463914
10	1	n/a	n/a	n/a	f	6	0.09000000000000001	1	f	1	0.5768112743971869
10	2	n/a	n/a	n/a	j	6	0.08000000000000002	1	j	1	0.5725231058167992
10	3	n/a	n/a	n/a	j	6	0.07000000000000002	1	j	1	0.617640249984106
10	4	n/a	n/a	n/a	j	6	0.06000000000000002	1	j	1	0.6379235924250679
10	5	n/a	n/a	n/a	f	6	0.05000000000000002	1	f	1	0.6539789220842067
10	6	n/a	n/a	n/a	j	6	0.04000000000000001	2	j	1	0.5239451493107481
10	7	n/a	n/a	n/a	j	6	0.05000000000000002	0	j	1	0.6914884942671051
10	8	n/a	n/a	n/a	j	6	0.06000000000000002	2	j	1	0.5920232822973048
10	9	n/a	n/a	n/a	f	6	0.07000000000000002	1	f	1	0.6349360438325675
10	10	n/a	n/a	n/a	j	6	0.06000000000000002	1	j	1	0.5588306736462982
10	11	n/a	n/a	n/a	j	6	0.05000000000000002	1	j	1	1.37138630352274
10	12	n/a	n/a	n/a	j	6	0.04000000000000001	2	j	1	0.5447938423312735
10	13	n/a	n/a	n/a	f	6	0.05000000000000002	1	f	1	0.5647116883046692
10	14	n/a	n/a	n/a	j	6	0.04000000000000001	1	j	1	0.5352019838319393
10	15	n/a	n/a	n/a	j	6	0.03000000000000001	0	j	1	0.5704561407037545
10	16	n/a	n/a	n/a	j	6	0.04000000000000001	1	j	1	0.6086222950543743
10	17	n/a	n/a	n/a	f	6	0.03000000000000001	1	f	1	0.6126153865479864
10	18	n/a	n/a	n/a	j	6	0.02000000000000001	2	j	1	0.5773609445750481
10	19	n/a	n/a	n/a	j	6	0.03000000000000001	1	j	1	0.6954644798388472
10	20	n/a	n/a	n/a	j	6	0.02000000000000001	2	j	1	0.6101948991272366
10	21	n/a	n/a	n/a	f	6	0.03000000000000001	1	f	1	0.6613042464305181
10	22	n/a	n/a	n/a	j	6	0.02000000000000001	2	j	1	0.7932533118582796
10	23	n/a	n/a	n/a	j	6	0.03000000000000001	2	j	1	0.6199350089154905
10	24	n/a	n/a	n/a	j	6	0.04000000000000001	1	j	1	0.6162968652206473
10	25	n/a	n/a	n/a	f	6	0.03000000000000001	2	f	1	0.5306270060245879
10	26	n/a	n/a	n/a	j	6	0.04000000000000001	0	j	1	0.7908715978555847
10	27	n/a	n/a	n/a	j	6	0.05000000000000002	2	j	1	0.5990449765959056
10	28	n/a	n/a	n/a	j	6	0.06000000000000002	1	j	1	0.5630475675716298
10	29	n/a	n/a	n/a	f	6	0.05000000000000002	1	f	1	0.5121682948665693
10	30	n/a	n/a	n/a	j	6	0.04000000000000001	0	j	1	0.5410818580858177
10	31	n/a	n/a	n/a	j	6	0.05000000000000002	1	j	1	0.7135380227409769
10	32	n/a	n/a	n/a	j	6	0.04000000000000001	2	j	1	0.5610624257533345
10	33	n/a	n/a	n/a	f	6	0.05000000000000002	1	f	1	0.6208955062174937
10	34	n/a	n/a	n/a	j	6	0.04000000000000001	1	j	1	0.529403362685116
10	35	n/a	n/a	n/a	j	6	0.03000000000000001	0	j	1	0.604781161135179
10	36	n/a	n/a	n/a	j	6	0.04000000000000001	1	j	1	0.6009924853715347
10	37	n/a	n/a	n/a	f	6	0.03000000000000001	1	j	0	0.5552335841639433
10	38	n/a	n/a	n/a	j	6	0.02000000000000001	0	j	1	0.9583028990600724
10	39	n/a	n/a	n/a	j	6	0.03000000000000001	2	j	1	0.6020986680814531
10	40	n/a	n/a	n/a	j	6	0.04000000000000001	1	j	1	0.5731708499224624
10	41	n/a	n/a	n/a	f	6	0.03000000000000001	1	f	1	0.5535757355974056
10	42	n/a	n/a	n/a	j	6	0.02000000000000001	0	j	1	0.5743905018753139
10	43	n/a	n/a	n/a	j	6	0.03000000000000001	1	j	1	0.5704398900852539
10	44	n/a	n/a	n/a	j	6	0.02000000000000001	1	j	1	0.6094023249315796
10	45	n/a	n/a	n/a	f	6	0.01000000000000001	2	f	1	0.5282874866243219
10	46	n/a	n/a	n/a	j	6	0.02000000000000001	0	j	1	0.5414142830995843
10	47	n/a	n/a	n/a	j	6	0.03000000000000001	0	j	1	0.5450233467272483
10	48	n/a	n/a	n/a	j	6	0.04000000000000001	1	j	1	0.4911836097890045
10	49	n/a	n/a	n/a	f	6	0.03000000000000001	0	f	1	0.5822284335736185
10	50	n/a	n/a	n/a	j	6	0.04000000000000001	1	j	1	0.6012442274659406
10	51	n/a	n/a	n/a	j	6	0.03000000000000001	1	j	1	0.5328710173926083
10	52	n/a	n/a	n/a	j	6	0.02000000000000001	0	j	1	0.4963447503832867
10	53	n/a	n/a	n/a	f	6	0.03000000000000001	0	f	1	0.597177865638514
10	54	n/a	n/a	n/a	j	6	0.04000000000000001	1	j	1	0.5693502431095112
10	55	n/a	n/a	n/a	j	6	0.03000000000000001	1	j	1	0.5800220552191604
10	56	n/a	n/a	n/a	j	6	0.02000000000000001	1	j	1	0.5689724874100648
10	57	n/a	n/a	n/a	f	6	0.01000000000000001	0	f	1	0.5330774288013345
10	58	n/a	n/a	n/a	j	6	0.02000000000000001	0	j	1	0.6109398618573323
10	59	n/a	n/a	n/a	j	6	0.03000000000000001	1	j	1	0.5510394981392892
10	60	n/a	n/a	n/a	j	6	0.02000000000000001	0	j	1	0.5869128892518347
10	61	n/a	n/a	n/a	f	6	0.03000000000000001	1	f	1	0.5859298691648291
10	62	n/a	n/a	n/a	j	6	0.02000000000000001	1	j	1	0.5265053350449307
10	63	n/a	n/a	n/a	j	6	0.01000000000000001	0	j	1	0.5778245149413124
10	64	n/a	n/a	n/a	j	6	0.02000000000000001	1	j	1	0.5606196675944375
10	65	n/a	n/a	n/a	f	6	0.01000000000000001	0	f	1	0.587450870370958
10	66	n/a	n/a	n/a	j	6	0.02000000000000001	1	j	1	0.5449497912777588
10	67	n/a	n/a	n/a	j	6	0.01000000000000001	0	j	1	0.564787524548592
10	68	n/a	n/a	n/a	j	6	0.02000000000000001	1	j	1	0.5616790941276122
10	69	n/a	n/a	n/a	f	6	0.01000000000000001	0	f	1	0.5821882346644998
10	70	n/a	n/a	n/a	j	6	0.02000000000000001	1	j	1	0.5621329711430008
10	71	n/a	n/a	n/a	j	6	0.01000000000000001	0	j	1	0.5415474241599441
11	0	j	1	2.056891717831604	j	12	0.1	0	j	1	1.009940819232725
11	1	n/a	n/a	n/a	j	12	0.11	1	j	1	0.861883680903702
11	2	n/a	n/a	n/a	f	12	0.1	0	f	1	0.856278071529232
11	3	n/a	n/a	n/a	j	12	0.11	0	j	1	0.8308469881303608
11	4	n/a	n/a	n/a	j	12	0.12	0	j	1	0.8908149202470668
11	5	n/a	n/a	n/a	j	12	0.13	1	j	1	0.8146699213393731
11	6	n/a	n/a	n/a	j	12	0.12	1	f	0	1.002604661131045
11	7	n/a	n/a	n/a	j	12	0.13	1	j	1	0.502155345689971
11	8	n/a	n/a	n/a	f	12	0.12	0	f	1	0.8015585201937938
11	9	n/a	n/a	n/a	j	12	0.13	0	j	1	0.8125613318406977
11	10	n/a	n/a	n/a	j	12	0.14	0	j	1	0.9371953364752699
11	11	n/a	n/a	n/a	j	12	0.15	1	j	1	1.110434381989762
11	12	n/a	n/a	n/a	j	12	0.14	1	j	1	0.9784750530088786
11	13	n/a	n/a	n/a	j	12	0.13	1	j	1	1.054251704466878
11	14	n/a	n/a	n/a	f	12	0.12	1	f	1	0.9782247364200884
11	15	n/a	n/a	n/a	j	12	0.11	1	j	1	1.031258784598322
11	16	n/a	n/a	n/a	j	12	0.1	1	j	1	0.9161291131895268
11	17	n/a	n/a	n/a	j	12	0.09000000000000002	1	j	1	0.96207874538959
11	18	n/a	n/a	n/a	j	12	0.08000000000000003	1	j	1	0.9340250396489864
11	19	n/a	n/a	n/a	j	12	0.07000000000000003	1	j	1	0.9398439027863787
11	20	n/a	n/a	n/a	f	12	0.06000000000000003	1	f	1	0.8880731266690418
11	21	n/a	n/a	n/a	j	12	0.05000000000000003	0	j	1	0.8759036913979799
11	22	n/a	n/a	n/a	j	12	0.06000000000000003	0	j	1	1.033016987887095
11	23	n/a	n/a	n/a	j	12	0.07000000000000003	1	j	1	1.028792111203074
11	24	n/a	n/a	n/a	j	12	0.06000000000000003	1	j	1	0.9683874079928501
11	25	n/a	n/a	n/a	j	12	0.05000000000000003	1	j	1	0.9416736658313312
11	26	n/a	n/a	n/a	f	12	0.04000000000000003	0	f	1	0.9384828419133555
11	27	n/a	n/a	n/a	j	12	0.05000000000000003	1	j	1	0.8052214674680727
11	28	n/a	n/a	n/a	j	12	0.04000000000000003	0	j	1	1.042547835269943
11	29	n/a	n/a	n/a	j	12	0.05000000000000003	2	j	1	0.982382329806569
11	30	n/a	n/a	n/a	j	12	0.06000000000000003	2	f	0	0.9046459103410598
11	31	n/a	n/a	n/a	j	12	0.05000000000000003	2	f	0	1.154983609681949
11	32	n/a	n/a	n/a	f	12	0.06000000000000003	2	j	0	0.935227870795643
11	33	n/a	n/a	n/a	j	12	0.07000000000000003	1	j	1	0.9550479279278079
11	34	n/a	n/a	n/a	j	12	0.06000000000000003	1	j	1	0.9336179187957896
11	35	n/a	n/a	n/a	j	12	0.05000000000000003	1	j	1	0.9441577302495716
11	36	n/a	n/a	n/a	j	12	0.04000000000000003	0	j	1	0.8759692640887806
11	37	n/a	n/a	n/a	j	12	0.05000000000000003	0	j	1	0.9921617832151242
11	38	n/a	n/a	n/a	f	12	0.06000000000000003	1	f	1	1.013949020940345
11	39	n/a	n/a	n/a	j	12	0.05000000000000003	1	j	1	0.9037769297137856
11	40	n/a	n/a	n/a	j	12	0.04000000000000003	0	j	1	0.9160849229083396
11	41	n/a	n/a	n/a	j	12	0.05000000000000003	0	j	1	0.7868331756617408
11	42	n/a	n/a	n/a	j	12	0.06000000000000003	0	j	1	0.9907086354651256
11	43	n/a	n/a	n/a	j	12	0.07000000000000003	0	f	0	1.489599601773079
11	44	n/a	n/a	n/a	f	12	0.06000000000000003	2	f	1	1.398661689992878
11	45	n/a	n/a	n/a	j	12	0.07000000000000003	2	j	1	0.7944815167575143
11	46	n/a	n/a	n/a	j	12	0.08000000000000003	0	j	1	0.8474254737957381
11	47	n/a	n/a	n/a	j	12	0.09000000000000002	0	j	1	0.842349007492885
11	48	n/a	n/a	n/a	j	12	0.1	0	f	0	0.9273967814515345
11	49	n/a	n/a	n/a	j	12	0.11	0	f	0	1.292229237544234
11	50	n/a	n/a	n/a	f	12	0.1	0	j	0	0.8263518379390007
11	51	n/a	n/a	n/a	j	12	0.11	0	f	0	1.085788460230106
11	52	n/a	n/a	n/a	j	12	0.12	0	f	0	0.6666278932534624
11	53	n/a	n/a	n/a	j	12	0.11	0	j	1	1.113317299386836
11	54	n/a	n/a	n/a	j	12	0.12	2	j	1	0.8126174962817458
11	55	n/a	n/a	n/a	j	12	0.13	0	j	1	0.6881653845921392
11	56	n/a	n/a	n/a	f	12	0.14	0	f	1	0.9390168316458585
11	57	n/a	n/a	n/a	j	12	0.15	1	j	1	0.6453732197696809
11	58	n/a	n/a	n/a	j	12	0.14	0	j	1	0.6588974437472643
11	59	n/a	n/a	n/a	j	12	0.15	0	j	1	0.8297898423916195
11	60	n/a	n/a	n/a	j	12	0.16	1	j	1	0.889445876586251
11	61	n/a	n/a	n/a	j	12	0.15	1	j	1	0.8808481570449658
11	62	n/a	n/a	n/a	f	12	0.14	1	f	1	0.9086518312687986
11	63	n/a	n/a	n/a	j	12	0.13	1	j	1	0.8076057473663241
11	64	n/a	n/a	n/a	j	12	0.12	0	j	1	0.8585109640407609
11	65	n/a	n/a	n/a	j	12	0.13	1	j	1	1.061494920388213
11	66	n/a	n/a	n/a	j	12	0.12	1	j	1	0.89841194357723
11	67	n/a	n/a	n/a	j	12	0.11	1	j	1	0.8543379753100453
11	68	n/a	n/a	n/a	f	12	0.1	0	f	1	0.8796527384547517
11	69	n/a	n/a	n/a	j	12	0.11	1	j	1	0.9939636065828381
11	70	n/a	n/a	n/a	j	12	0.1	1	j	1	0.8132250414637383
11	71	n/a	n/a	n/a	j	12	0.09000000000000002	0	j	1	0.819197002594592
12	0	j	1	0.05974384458386339	j	8	0.06000000000000002	2	j	1	0.7172229226271156
12	1	n/a	n/a	n/a	j	8	0.07000000000000002	2	j	1	0.6431175193574745
12	2	n/a	n/a	n/a	f	8	0.08000000000000002	1	f	1	0.6021505560347578
12	3	n/a	n/a	n/a	j	8	0.07000000000000002	1	j	1	0.5759987432829803
12	4	n/a	n/a	n/a	j	8	0.06000000000000002	1	j	1	0.6150461375073064
12	5	n/a	n/a	n/a	j	8	0.05000000000000002	1	j	1	0.6666589689993998
12	6	n/a	n/a	n/a	j	8	0.04000000000000001	2	j	1	0.6339045569620794
12	7	n/a	n/a	n/a	j	8	0.05000000000000002	2	j	1	0.7041368952486664
12	8	n/a	n/a	n/a	f	8	0.06000000000000002	2	f	1	0.5638840469619026
12	9	n/a	n/a	n/a	j	8	0.07000000000000002	1	j	1	0.6009964767436031
12	10	n/a	n/a	n/a	j	8	0.06000000000000002	1	j	1	0.5638486947427737
12	11	n/a	n/a	n/a	j	8	0.05000000000000002	1	j	1	0.6427389083837625
12	12	n/a	n/a	n/a	j	8	0.04000000000000001	2	j	1	0.5849106415262213
12	13	n/a	n/a	n/a	j	8	0.05000000000000002	1	j	1	0.5678817000298295
12	14	n/a	n/a	n/a	f	8	0.04000000000000001	1	f	1	0.5717439312429633
12	15	n/a	n/a	n/a	j	8	0.03000000000000001	1	j	1	0.5687575230404036
12	16	n/a	n/a	n/a	j	8	0.02000000000000001	1	j	1	0.5622615506290458
12	17	n/a	n/a	n/a	j	8	0.01000000000000001	0	j	1	0.6132454545295332
12	18	n/a	n/a	n/a	j	8	0.02000000000000001	2	j	1	0.5847136383817997
12	19	n/a	n/a	n/a	j	8	0.03000000000000001	1	j	1	0.6556809609464835
12	20	n/a	n/a	n/a	f	8	0.02000000000000001	2	f	1	0.5465161231841194
12	21	n/a	n/a	n/a	j	8	0.03000000000000001	0	j	1	0.8074857208412141
12	22	n/a	n/a	n/a	j	8	0.04000000000000001	2	j	1	0.5423616658517858
12	23	n/a	n/a	n/a	j	8	0.05000000000000002	1	j	1	0.9302614525513491
12	24	n/a	n/a	n/a	j	8	0.04000000000000001	2	j	1	0.5828388297522906
12	25	n/a	n/a	n/a	j	8	0.05000000000000002	1	j	1	0.6912949123070575
12	26	n/a	n/a	n/a	f	8	0.04000000000000001	2	f	1	0.559289967539371
12	27	n/a	n/a	n/a	j	8	0.05000000000000002	1	j	1	0.6290316510712728
12	28	n/a	n/a	n/a	j	8	0.04000000000000001	2	j	1	0.571204239531653
12	29	n/a	n/a	n/a	j	8	0.05000000000000002	1	j	1	0.5661748145066667
12	30	n/a	n/a	n/a	j	8	0.04000000000000001	1	j	1	0.6120950815384276
12	31	n/a	n/a	n/a	j	8	0.03000000000000001	1	j	1	0.5631102892657509
12	32	n/a	n/a	n/a	f	8	0.02000000000000001	0	f	1	0.541997024716693
12	33	n/a	n/a	n/a	j	8	0.03000000000000001	0	j	1	0.545482640634873
12	34	n/a	n/a	n/a	j	8	0.04000000000000001	1	j	1	0.7052205551590305
12	35	n/a	n/a	n/a	j	8	0.03000000000000001	2	j	1	0.6354874245880637
12	36	n/a	n/a	n/a	j	8	0.04000000000000001	2	j	1	0.7298077465820825
12	37	n/a	n/a	n/a	j	8	0.05000000000000002	2	j	1	0.5488542170933215
12	38	n/a	n/a	n/a	f	8	0.06000000000000002	1	f	1	0.5537137233332032
12	39	n/a	n/a	n/a	j	8	0.05000000000000002	1	j	1	0.4528004953899654
12	40	n/a	n/a	n/a	j	8	0.04000000000000001	0	j	1	0.609832253670902
12	41	n/a	n/a	n/a	j	8	0.05000000000000002	1	j	1	0.6927050101512577
12	42	n/a	n/a	n/a	j	8	0.04000000000000001	2	j	1	0.8253531374211889
12	43	n/a	n/a	n/a	j	8	0.05000000000000002	2	j	1	0.7723909341002582
12	44	n/a	n/a	n/a	f	8	0.06000000000000002	2	f	1	0.5847680922161089
12	45	n/a	n/a	n/a	j	8	0.07000000000000002	1	j	1	0.5475125429074978
12	46	n/a	n/a	n/a	j	8	0.06000000000000002	1	j	1	0.4807310385076562
12	47	n/a	n/a	n/a	j	8	0.05000000000000002	0	j	1	0.549495689017931
12	48	n/a	n/a	n/a	j	8	0.06000000000000002	1	j	1	0.5383363582368474
12	49	n/a	n/a	n/a	j	8	0.05000000000000002	1	j	1	0.549444941454567
12	50	n/a	n/a	n/a	f	8	0.04000000000000001	1	f	1	0.4881299183034571
12	51	n/a	n/a	n/a	j	8	0.03000000000000001	0	j	1	0.4984385147690773
12	52	n/a	n/a	n/a	j	8	0.04000000000000001	0	j	1	0.6632517552061472
12	53	n/a	n/a	n/a	j	8	0.05000000000000002	2	j	1	0.6672525443718769
12	54	n/a	n/a	n/a	j	8	0.06000000000000002	2	j	1	0.6872547795355786
12	55	n/a	n/a	n/a	j	8	0.07000000000000002	2	j	1	0.5603910184872802
12	56	n/a	n/a	n/a	f	8	0.08000000000000002	1	f	1	0.5392056239652447
12	57	n/a	n/a	n/a	j	8	0.07000000000000002	1	j	1	0.5498446497513214
12	58	n/a	n/a	n/a	j	8	0.06000000000000002	1	j	1	0.5618960541760316
12	59	n/a	n/a	n/a	j	8	0.05000000000000002	1	j	1	0.565353730431525
12	60	n/a	n/a	n/a	j	8	0.04000000000000001	1	j	1	0.5999393310048617
12	61	n/a	n/a	n/a	j	8	0.03000000000000001	1	j	1	0.5955468163301703
12	62	n/a	n/a	n/a	f	8	0.02000000000000001	1	f	1	0.5688270871032728
12	63	n/a	n/a	n/a	j	8	0.01000000000000001	0	j	1	0.5568911476439098
12	64	n/a	n/a	n/a	j	8	0.02000000000000001	0	j	1	0.5593663739709882
12	65	n/a	n/a	n/a	j	8	0.03000000000000001	1	j	1	0.63456826658512
12	66	n/a	n/a	n/a	j	8	0.02000000000000001	2	j	1	0.6214528740529204
12	67	n/a	n/a	n/a	j	8	0.03000000000000001	2	j	1	0.5849009481898975
12	68	n/a	n/a	n/a	f	8	0.04000000000000001	1	f	1	0.5964611276576761
12	69	n/a	n/a	n/a	j	8	0.03000000000000001	1	j	1	0.5119601728511043
12	70	n/a	n/a	n/a	j	8	0.02000000000000001	0	j	1	0.5877026124799158
12	71	n/a	n/a	n/a	j	8	0.03000000000000001	1	j	1	0.583840096151107
13	0	j	1	0.158738073616405	j	10	0.14	0	j	1	0.998280855230405
13	1	n/a	n/a	n/a	f	10	0.15	1	f	1	0.960249552532332
13	2	n/a	n/a	n/a	j	10	0.14	1	j	1	1.076890816912055
13	3	n/a	n/a	n/a	j	10	0.13	1	j	1	1.095942248139181
13	4	n/a	n/a	n/a	j	10	0.12	1	j	1	1.08266834076494
13	5	n/a	n/a	n/a	f	10	0.11	1	f	1	0.9973850753158331
13	6	n/a	n/a	n/a	j	10	0.1	1	j	1	1.018478382975445
13	7	n/a	n/a	n/a	j	10	0.09000000000000002	1	j	1	1.029808772946126
13	8	n/a	n/a	n/a	j	10	0.08000000000000003	1	j	1	1.009488367693848
13	9	n/a	n/a	n/a	f	10	0.07000000000000003	1	f	1	0.8381050291936845
13	10	n/a	n/a	n/a	j	10	0.06000000000000003	0	j	1	0.9615903714147862
13	11	n/a	n/a	n/a	j	10	0.07000000000000003	1	j	1	1.080623898451449
13	12	n/a	n/a	n/a	j	10	0.06000000000000003	2	j	1	1.061371472678729
13	13	n/a	n/a	n/a	f	10	0.07000000000000003	2	f	1	0.9285160786967026
13	14	n/a	n/a	n/a	j	10	0.08000000000000003	1	j	1	0.980309947830392
13	15	n/a	n/a	n/a	j	10	0.07000000000000003	1	j	1	0.9763784376409603
13	16	n/a	n/a	n/a	j	10	0.06000000000000003	1	j	1	1.012331656384049
13	17	n/a	n/a	n/a	f	10	0.05000000000000003	1	f	1	0.9391203224513447
13	18	n/a	n/a	n/a	j	10	0.04000000000000003	0	j	1	0.9199428776337299
13	19	n/a	n/a	n/a	j	10	0.05000000000000003	0	j	1	0.877863174318918
13	20	n/a	n/a	n/a	j	10	0.06000000000000003	0	j	1	0.9539263499027584
13	21	n/a	n/a	n/a	f	10	0.07000000000000003	1	f	1	0.846652856489527
13	22	n/a	n/a	n/a	j	10	0.06000000000000003	0	j	1	1.011916552772163
13	23	n/a	n/a	n/a	j	10	0.07000000000000003	1	j	1	0.9450897177011939
13	24	n/a	n/a	n/a	j	10	0.06000000000000003	1	j	1	0.9403194473125041
13	25	n/a	n/a	n/a	f	10	0.05000000000000003	1	f	1	0.8879288667376386
13	26	n/a	n/a	n/a	j	10	0.04000000000000003	0	j	1	0.8915450578351738
13	27	n/a	n/a	n/a	j	10	0.05000000000000003	0	j	1	0.8078204266348621
13	28	n/a	n/a	n/a	j	10	0.06000000000000003	0	j	1	0.9232112483878154
13	29	n/a	n/a	n/a	f	10	0.07000000000000003	0	j	0	0.9580411785136675
13	30	n/a	n/a	n/a	j	10	0.06000000000000003	0	f	0	0.8333869318739744
13	31	n/a	n/a	n/a	j	10	0.05000000000000003	0	j	1	0.9084505516366335
13	32	n/a	n/a	n/a	j	10	0.06000000000000003	0	j	1	0.9192070380668156
13	33	n/a	n/a	n/a	f	10	0.07000000000000003	1	f	1	0.8663372066803277
13	34	n/a	n/a	n/a	j	10	0.06000000000000003	0	j	1	1.094293807822396
13	35	n/a	n/a	n/a	j	10	0.07000000000000003	2	j	1	1.195138041905011
13	36	n/a	n/a	n/a	j	10	0.08000000000000003	2	j	1	0.8562943221477326
13	37	n/a	n/a	n/a	f	10	0.09000000000000002	0	f	1	0.9170611006265972
13	38	n/a	n/a	n/a	j	10	0.1	1	j	1	0.8012594517203979
13	39	n/a	n/a	n/a	j	10	0.09000000000000002	0	j	1	0.9428993048786651
13	40	n/a	n/a	n/a	j	10	0.1	1	j	1	0.8829447723983321
13	41	n/a	n/a	n/a	f	10	0.09000000000000002	0	f	1	0.8880138261447428
13	42	n/a	n/a	n/a	j	10	0.1	1	j	1	0.9007115491840523
13	43	n/a	n/a	n/a	j	10	0.09000000000000002	1	j	1	1.032914352384978
13	44	n/a	n/a	n/a	j	10	0.08000000000000003	1	j	1	0.8994328817934729
13	45	n/a	n/a	n/a	f	10	0.07000000000000003	0	f	1	0.9614934378769249
13	46	n/a	n/a	n/a	j	10	0.08000000000000003	1	j	1	0.7984278520889347
13	47	n/a	n/a	n/a	j	10	0.07000000000000003	0	j	1	0.9532481002534041
13	48	n/a	n/a	n/a	j	10	0.08000000000000003	1	j	1	0.9687409303005552
13	49	n/a	n/a	n/a	f	10	0.07000000000000003	1	f	1	0.9155435205902904
13	50	n/a	n/a	n/a	j	10	0.06000000000000003	0	j	1	1.030605623629526
13	51	n/a	n/a	n/a	j	10	0.07000000000000003	1	j	1	1.097272803468513
13	52	n/a	n/a	n/a	j	10	0.06000000000000003	2	j	1	1.077309056621743
13	53	n/a	n/a	n/a	f	10	0.07000000000000003	2	f	1	1.092219145051786
13	54	n/a	n/a	n/a	j	10	0.08000000000000003	2	j	1	0.8571390693978174
13	55	n/a	n/a	n/a	j	10	0.09000000000000002	0	j	1	0.7811235052940901
13	56	n/a	n/a	n/a	j	10	0.1	0	j	1	1.153234529541805
13	57	n/a	n/a	n/a	f	10	0.11	2	f	1	0.7639540101663442
13	58	n/a	n/a	n/a	j	10	0.12	0	j	1	0.9051171783939935
13	59	n/a	n/a	n/a	j	10	0.13	1	j	1	0.6759169769939035
13	60	n/a	n/a	n/a	j	10	0.12	0	j	1	0.7920670164312469
13	61	n/a	n/a	n/a	f	10	0.13	0	f	1	0.891530232707737
13	62	n/a	n/a	n/a	j	10	0.14	1	j	1	1.184084482709295
13	63	n/a	n/a	n/a	j	10	0.13	2	j	1	0.9808083002571948
13	64	n/a	n/a	n/a	j	10	0.14	1	j	1	1.44075764392619
13	65	n/a	n/a	n/a	f	10	0.13	2	f	1	0.812467249299516
13	66	n/a	n/a	n/a	j	10	0.14	0	j	1	0.8986770853080088
13	67	n/a	n/a	n/a	j	10	0.15	1	j	1	1.20057601328881
13	68	n/a	n/a	n/a	j	10	0.14	2	j	1	1.014439390593907
13	69	n/a	n/a	n/a	f	10	0.15	1	f	1	0.8108008477574913
13	70	n/a	n/a	n/a	j	10	0.14	0	j	1	0.9909774834814016
13	71	n/a	n/a	n/a	j	10	0.15	1	j	1	0.8762295591441216
14	0	j	1	0.07507473860459868	j	4	0.12	2	j	1	0.4836339128232794
14	1	n/a	n/a	n/a	j	4	0.13	1	j	1	0.4294343814108288
14	2	n/a	n/a	n/a	f	4	0.12	1	f	1	0.424280653372989
14	3	n/a	n/a	n/a	j	4	0.11	1	j	1	0.3744231741729891
14	4	n/a	n/a	n/a	j	4	0.1	1	j	1	0.4423878379166126
14	5	n/a	n/a	n/a	j	4	0.09000000000000002	1	j	1	0.3934392531664344
14	6	n/a	n/a	n/a	j	4	0.08000000000000003	1	j	1	0.404397874532151
14	7	n/a	n/a	n/a	j	4	0.07000000000000003	1	f	0	0.4744654258101946
14	8	n/a	n/a	n/a	f	4	0.06000000000000003	1	j	0	0.08930857309314888
14	9	n/a	n/a	n/a	j	4	0.07000000000000003	0	j	1	0.4589606216177344
14	10	n/a	n/a	n/a	j	4	0.08000000000000003	1	j	1	0.4952522524254164
14	11	n/a	n/a	n/a	j	4	0.07000000000000003	2	j	1	0.4512581117742229
14	12	n/a	n/a	n/a	j	4	0.08000000000000003	1	j	1	0.3909708691935521
14	13	n/a	n/a	n/a	j	4	0.07000000000000003	1	j	1	0.306924361619167
14	14	n/a	n/a	n/a	f	4	0.06000000000000003	0	f	1	0.3923869541031308
14	15	n/a	n/a	n/a	j	4	0.07000000000000003	1	j	1	0.4041441367444349
14	16	n/a	n/a	n/a	j	4	0.06000000000000003	1	j	1	0.3611404287512414
14	17	n/a	n/a	n/a	j	4	0.05000000000000003	1	j	1	0.4040754279849352
14	18	n/a	n/a	n/a	j	4	0.04000000000000003	1	j	1	0.3830459824239369
14	19	n/a	n/a	n/a	j	4	0.03000000000000003	1	j	1	0.3857487174827838
14	20	n/a	n/a	n/a	f	4	0.02000000000000002	1	f	1	0.3896836488420377
14	21	n/a	n/a	n/a	j	4	0.01000000000000002	1	j	1	0.3620838201459264
14	22	n/a	n/a	n/a	j	4	2.42861286636753e-17	0	j	1	0.4290839951863745
14	23	n/a	n/a	n/a	j	4	0.01000000000000002	2	j	1	0.4179822543228511
14	24	n/a	n/a	n/a	j	4	0.02000000000000002	2	j	1	0.4469670922117075
14	25	n/a	n/a	n/a	j	4	0.03000000000000003	2	j	1	0.3936023295973428
14	26	n/a	n/a	n/a	f	4	0.04000000000000003	1	f	1	0.3918774828634923
14	27	n/a	n/a	n/a	j	4	0.03000000000000003	1	j	1	0.458880223784945
14	28	n/a	n/a	n/a	j	4	0.02000000000000002	2	j	1	0.1973415692627896
14	29	n/a	n/a	n/a	j	4	0.03000000000000003	0	j	1	0.545648282932234
14	30	n/a	n/a	n/a	j	4	0.04000000000000003	2	j	1	0.5097985550091835
14	31	n/a	n/a	n/a	j	4	0.05000000000000003	2	j	1	0.4356974282418378
14	32	n/a	n/a	n/a	f	4	0.06000000000000003	1	f	1	0.4319446748995688
14	33	n/a	n/a	n/a	j	4	0.05000000000000003	1	j	1	0.4048292287625372
14	34	n/a	n/a	n/a	j	4	0.04000000000000003	1	j	1	0.3913466291851364
14	35	n/a	n/a	n/a	j	4	0.03000000000000003	1	j	1	0.4107780969061423
14	36	n/a	n/a	n/a	j	4	0.02000000000000002	2	j	1	0.4226755480631255
14	37	n/a	n/a	n/a	j	4	0.03000000000000003	2	j	1	0.4186519510112703
14	38	n/a	n/a	n/a	f	4	0.04000000000000003	1	f	1	0.445629124311381
14	39	n/a	n/a	n/a	j	4	0.03000000000000003	2	j	1	0.3885768959589768
14	40	n/a	n/a	n/a	j	4	0.04000000000000003	1	j	1	0.3993892616999801
14	41	n/a	n/a	n/a	j	4	0.03000000000000003	1	j	1	0.5785278532857774
14	42	n/a	n/a	n/a	j	4	0.02000000000000002	2	j	1	0.3825205456378171
14	43	n/a	n/a	n/a	j	4	0.03000000000000003	1	j	1	0.3724822226795368
14	44	n/a	n/a	n/a	f	4	0.02000000000000002	1	f	1	0.3834833237197017
14	45	n/a	n/a	n/a	j	4	0.01000000000000002	1	j	1	0.3959310152567923
14	46	n/a	n/a	n/a	j	4	2.42861286636753e-17	2	j	1	0.360546568306745
14	47	n/a	n/a	n/a	j	4	0.01000000000000002	0	j	1	0.3803535109036602
14	48	n/a	n/a	n/a	j	4	0.02000000000000002	1	j	1	0.4002285920869326
14	49	n/a	n/a	n/a	j	4	0.01000000000000002	2	j	1	0.3330795955407666
14	50	n/a	n/a	n/a	f	4	0.02000000000000002	0	f	1	0.3124458669044543
14	51	n/a	n/a	n/a	j	4	0.03000000000000003	0	f	0	0.4683135674422374
14	52	n/a	n/a	n/a	j	4	0.04000000000000003	0	f	0	0.4712478026049212
14	53	n/a	n/a	n/a	j	4	0.05000000000000003	2	j	1	0.4352475425839657
14	54	n/a	n/a	n/a	j	4	0.06000000000000003	1	j	1	0.4262312982464209
14	55	n/a	n/a	n/a	j	4	0.05000000000000003	1	j	1	0.3820130700623849
14	56	n/a	n/a	n/a	f	4	0.04000000000000003	1	f	1	0.3722014005179517
14	57	n/a	n/a	n/a	j	4	0.03000000000000003	1	j	1	0.3703206048230641
14	58	n/a	n/a	n/a	j	4	0.02000000000000002	1	j	1	0.4057874452701071
14	59	n/a	n/a	n/a	j	4	0.01000000000000002	2	j	1	0.4121172051964095
14	60	n/a	n/a	n/a	j	4	0.02000000000000002	2	j	1	0.3921839638787787
14	61	n/a	n/a	n/a	j	4	0.03000000000000003	1	j	1	0.396527156495722
14	62	n/a	n/a	n/a	f	4	0.02000000000000002	1	f	1	0.3601320348825539
14	63	n/a	n/a	n/a	j	4	0.01000000000000002	0	j	1	0.420069746527588
14	64	n/a	n/a	n/a	j	4	0.02000000000000002	2	j	1	0.3800376216240693
14	65	n/a	n/a	n/a	j	4	0.03000000000000003	1	j	1	0.3709894462226657
14	66	n/a	n/a	n/a	j	4	0.02000000000000002	1	j	1	0.390980847645551
14	67	n/a	n/a	n/a	j	4	0.01000000000000002	1	j	1	0.2899664096767083
14	68	n/a	n/a	n/a	f	4	2.42861286636753e-17	0	f	1	0.3649265386338811
14	69	n/a	n/a	n/a	j	4	0.01000000000000002	0	j	1	0.4170257484074682
14	70	n/a	n/a	n/a	j	4	0.02000000000000002	2	j	1	0.3655959502357291
14	71	n/a	n/a	n/a	j	4	0.03000000000000003	1	j	1	0.3929343435011106
15	0	f	1	1.293338556337403	f	7	0.06000000000000002	0	f	1	0.6528003243292915
15	1	n/a	n/a	n/a	f	7	0.07000000000000002	1	f	1	0.5678893976873951
15	2	n/a	n/a	n/a	j	7	0.06000000000000002	1	j	1	0.6747549149586121
15	3	n/a	n/a	n/a	f	7	0.05000000000000002	1	j	0	0.7177520656696288
15	4	n/a	n/a	n/a	f	7	0.06000000000000002	1	j	0	1.075611864434904
15	5	n/a	n/a	n/a	f	7	0.07000000000000002	2	f	1	0.6967257562064333
15	6	n/a	n/a	n/a	f	7	0.08000000000000002	2	f	1	0.6206220966269029
15	7	n/a	n/a	n/a	f	7	0.09000000000000001	1	f	1	0.7287346353259636
15	8	n/a	n/a	n/a	j	7	0.08000000000000002	2	j	1	0.611979046385386
15	9	n/a	n/a	n/a	f	7	0.09000000000000001	1	f	1	0.5830820188857615
15	10	n/a	n/a	n/a	f	7	0.08000000000000002	1	f	1	0.5624026744480943
15	11	n/a	n/a	n/a	f	7	0.07000000000000002	1	f	1	0.6633948747185059
15	12	n/a	n/a	n/a	f	7	0.06000000000000002	2	f	1	0.6203156155825127
15	13	n/a	n/a	n/a	f	7	0.07000000000000002	1	f	1	0.5833457351254765
15	14	n/a	n/a	n/a	j	7	0.06000000000000002	1	j	1	0.5939166223397478
15	15	n/a	n/a	n/a	f	7	0.05000000000000002	1	f	1	0.6141988243616652
15	16	n/a	n/a	n/a	f	7	0.04000000000000001	1	f	1	0.5701419620163506
15	17	n/a	n/a	n/a	f	7	0.03000000000000001	1	f	1	0.5901196787162917
15	18	n/a	n/a	n/a	f	7	0.02000000000000001	1	f	1	0.5538534216611879
15	19	n/a	n/a	n/a	f	7	0.01000000000000001	0	f	1	0.6066237536288099
15	20	n/a	n/a	n/a	j	7	0.02000000000000001	1	j	1	0.5980308807484107
15	21	n/a	n/a	n/a	f	7	0.01000000000000001	2	f	1	0.5771670774847735
15	22	n/a	n/a	n/a	f	7	0.02000000000000001	1	f	1	0.5399511568975868
15	23	n/a	n/a	n/a	f	7	0.01000000000000001	0	f	1	0.6720424865488894
15	24	n/a	n/a	n/a	f	7	0.02000000000000001	2	f	1	0.5873379713302711
15	25	n/a	n/a	n/a	f	7	0.03000000000000001	1	f	1	0.5508607412775746
15	26	n/a	n/a	n/a	j	7	0.02000000000000001	0	j	1	0.5788209346792428
15	27	n/a	n/a	n/a	f	7	0.03000000000000001	1	f	1	0.5818355676601641
15	28	n/a	n/a	n/a	f	7	0.02000000000000001	1	f	1	0.5007683408184675
15	29	n/a	n/a	n/a	f	7	0.01000000000000001	1	j	0	0.7855188709654612
15	30	n/a	n/a	n/a	f	7	0.02000000000000001	2	f	1	0.5664080251735868
15	31	n/a	n/a	n/a	f	7	0.03000000000000001	1	f	1	0.5768796980701154
15	32	n/a	n/a	n/a	j	7	0.02000000000000001	1	j	1	0.5034744970762404
15	33	n/a	n/a	n/a	f	7	0.01000000000000001	0	f	1	0.589640142803546
15	34	n/a	n/a	n/a	f	7	0.02000000000000001	1	f	1	0.5206998715293594
15	35	n/a	n/a	n/a	f	7	0.01000000000000001	0	f	1	0.5655068283958826
15	36	n/a	n/a	n/a	f	7	0.02000000000000001	0	f	1	0.5995427588059101
15	37	n/a	n/a	n/a	f	7	0.03000000000000001	1	f	1	0.5347509577986784
15	38	n/a	n/a	n/a	j	7	0.02000000000000001	0	j	1	0.4924679791438393
15	39	n/a	n/a	n/a	f	7	0.03000000000000001	0	f	1	0.6075588771491311
15	40	n/a	n/a	n/a	f	7	0.04000000000000001	1	f	1	0.6513580103346612
15	41	n/a	n/a	n/a	f	7	0.03000000000000001	2	f	1	0.6253801077546086
15	42	n/a	n/a	n/a	f	7	0.04000000000000001	1	f	1	0.6130624212091789
15	43	n/a	n/a	n/a	f	7	0.03000000000000001	1	f	1	0.6192844138422515
15	44	n/a	n/a	n/a	j	7	0.02000000000000001	2	j	1	0.5669289003853919
15	45	n/a	n/a	n/a	f	7	0.03000000000000001	1	f	1	0.5549450643447926
15	46	n/a	n/a	n/a	f	7	0.02000000000000001	0	f	1	0.5282330327900127
15	47	n/a	n/a	n/a	f	7	0.03000000000000001	0	f	1	0.5731258043379057
15	48	n/a	n/a	n/a	f	7	0.04000000000000001	1	f	1	0.5212244530266616
15	49	n/a	n/a	n/a	f	7	0.03000000000000001	0	f	1	0.8600621857185615
15	50	n/a	n/a	n/a	j	7	0.04000000000000001	2	j	1	0.5291972363629611
15	51	n/a	n/a	n/a	f	7	0.05000000000000002	0	f	1	0.7479998905182583
15	52	n/a	n/a	n/a	f	7	0.06000000000000002	2	f	1	0.5121101347467629
15	53	n/a	n/a	n/a	f	7	0.07000000000000002	0	f	1	0.5179193045332795
15	54	n/a	n/a	n/a	f	7	0.08000000000000002	1	f	1	0.5559201016876614
15	55	n/a	n/a	n/a	f	7	0.07000000000000002	1	f	1	0.5600012886570767
15	56	n/a	n/a	n/a	j	7	0.06000000000000002	1	j	1	0.4788582255860092
15	57	n/a	n/a	n/a	f	7	0.05000000000000002	0	f	1	0.5627864172129193
15	58	n/a	n/a	n/a	f	7	0.06000000000000002	1	f	1	0.5439117471541977
15	59	n/a	n/a	n/a	f	7	0.05000000000000002	1	f	1	0.5247402893874096
15	60	n/a	n/a	n/a	f	7	0.04000000000000001	0	f	1	0.5056671906786505
15	61	n/a	n/a	n/a	f	7	0.05000000000000002	0	f	1	0.612699205550598
15	62	n/a	n/a	n/a	j	7	0.06000000000000002	1	j	1	0.4732802707731025
15	63	n/a	n/a	n/a	f	7	0.05000000000000002	0	f	1	0.6552655722334748
15	64	n/a	n/a	n/a	f	7	0.06000000000000002	2	f	1	0.5085957238625269
15	65	n/a	n/a	n/a	f	7	0.07000000000000002	0	f	1	0.5287145643815165
15	66	n/a	n/a	n/a	f	7	0.08000000000000002	1	f	1	0.6604654862458119
15	67	n/a	n/a	n/a	f	7	0.07000000000000002	2	f	1	0.5845930416544434
15	68	n/a	n/a	n/a	j	7	0.08000000000000002	1	j	1	0.499421819957206
15	69	n/a	n/a	n/a	f	7	0.07000000000000002	0	f	1	0.5114016646402888
15	70	n/a	n/a	n/a	f	7	0.08000000000000002	1	f	1	0.4990819824015489
15	71	n/a	n/a	n/a	f	7	0.07000000000000002	0	f	1	0.512510698317783
16	0	j	1	0.05886260469560511	j	2	0.06000000000000003	2	j	1	0.4416565599094611
16	1	n/a	n/a	n/a	f	2	0.07000000000000003	1	f	1	0.3725780158129055
16	2	n/a	n/a	n/a	j	2	0.06000000000000003	1	j	1	0.4247265476442408
16	3	n/a	n/a	n/a	j	2	0.05000000000000003	1	j	1	0.3394772089231992
16	4	n/a	n/a	n/a	j	2	0.04000000000000003	0	j	1	0.4166916127869627
16	5	n/a	n/a	n/a	f	2	0.05000000000000003	1	f	1	0.3565192649693927
16	6	n/a	n/a	n/a	j	2	0.04000000000000003	1	j	1	0.4006656482961262
16	7	n/a	n/a	n/a	j	2	0.03000000000000003	1	j	1	0.3719562157057226
16	8	n/a	n/a	n/a	j	2	0.02000000000000002	1	j	1	0.4005518939375179
16	9	n/a	n/a	n/a	f	2	0.01000000000000002	2	f	1	0.3473815686011221
16	10	n/a	n/a	n/a	j	2	0.02000000000000002	0	j	1	0.3845678389334353
16	11	n/a	n/a	n/a	j	2	0.03000000000000003	1	j	1	0.3494280066079227
16	12	n/a	n/a	n/a	j	2	0.02000000000000002	0	j	1	0.3943099444004474
16	13	n/a	n/a	n/a	f	2	0.03000000000000003	1	f	1	0.3912742141401395
16	14	n/a	n/a	n/a	j	2	0.02000000000000002	1	j	1	0.4262797650153516
16	15	n/a	n/a	n/a	j	2	0.01000000000000002	2	j	1	0.3103196012816625
16	16	n/a	n/a	n/a	j	2	0.02000000000000002	0	j	1	0.3937793758523185
16	17	n/a	n/a	n/a	f	2	0.03000000000000003	1	f	1	0.2950443014706252
16	18	n/a	n/a	n/a	j	2	0.02000000000000002	0	j	1	0.365156328145531
16	19	n/a	n/a	n/a	j	2	0.03000000000000003	1	j	1	0.4163834211649373
16	20	n/a	n/a	n/a	j	2	0.02000000000000002	2	j	1	0.4438449770532316
16	21	n/a	n/a	n/a	f	2	0.03000000000000003	2	f	1	0.3042991733818781
16	22	n/a	n/a	n/a	j	2	0.04000000000000003	0	j	1	0.4130745664151618
16	23	n/a	n/a	n/a	j	2	0.05000000000000003	1	j	1	0.3932259994035121
16	24	n/a	n/a	n/a	j	2	0.04000000000000003	1	j	1	0.4365909273765283
16	25	n/a	n/a	n/a	f	2	0.03000000000000003	2	f	1	0.479970110260183
16	26	n/a	n/a	n/a	j	2	0.04000000000000003	2	j	1	0.7729862200503703
16	27	n/a	n/a	n/a	j	2	0.05000000000000003	2	j	1	0.3451506717829034
16	28	n/a	n/a	n/a	j	2	0.06000000000000003	1	j	1	0.3878182484768331
16	29	n/a	n/a	n/a	f	2	0.05000000000000003	1	f	1	0.3200169462652411
16	30	n/a	n/a	n/a	j	2	0.04000000000000003	0	j	1	0.386906788131455
16	31	n/a	n/a	n/a	j	2	0.05000000000000003	1	j	1	0.3281012031802675
16	32	n/a	n/a	n/a	j	2	0.04000000000000003	0	j	1	0.372463976367726
16	33	n/a	n/a	n/a	f	2	0.05000000000000003	1	f	1	0.3280233712430345
16	34	n/a	n/a	n/a	j	2	0.04000000000000003	0	j	1	0.3877372804709012
16	35	n/a	n/a	n/a	j	2	0.05000000000000003	1	j	1	0.3908137798425741
16	36	n/a	n/a	n/a	j	2	0.04000000000000003	1	j	1	0.401786085931235
16	37	n/a	n/a	n/a	f	2	0.03000000000000003	1	f	1	0.3977314131479943
16	38	n/a	n/a	n/a	j	2	0.02000000000000002	1	j	1	0.3689455741114216
16	39	n/a	n/a	n/a	j	2	0.01000000000000002	0	j	1	0.2845384167594602
16	40	n/a	n/a	n/a	j	2	0.02000000000000002	0	j	1	0.4317060473404126
16	41	n/a	n/a	n/a	f	2	0.03000000000000003	2	f	1	0.4286412370129256
16	42	n/a	n/a	n/a	j	2	0.04000000000000003	2	j	1	0.4398017081985017
16	43	n/a	n/a	n/a	j	2	0.05000000000000003	2	j	1	0.6504602347267792
16	44	n/a	n/a	n/a	j	2	0.06000000000000003	2	j	1	0.4466372330934973
16	45	n/a	n/a	n/a	f	2	0.07000000000000003	1	f	1	0.3945953281508991
16	46	n/a	n/a	n/a	j	2	0.06000000000000003	1	j	1	0.3664923003525473
16	47	n/a	n/a	n/a	j	2	0.05000000000000003	1	j	1	0.3945231981924735
16	48	n/a	n/a	n/a	j	2	0.04000000000000003	1	j	1	0.3984618358517764
16	49	n/a	n/a	n/a	f	2	0.03000000000000003	1	f	1	0.3785451302537695
16	50	n/a	n/a	n/a	j	2	0.02000000000000002	1	j	1	0.342648075951729
16	51	n/a	n/a	n/a	j	2	0.01000000000000002	0	j	1	0.3783823389385361
16	52	n/a	n/a	n/a	j	2	0.02000000000000002	1	j	1	0.3824304544687038
16	53	n/a	n/a	n/a	f	2	0.01000000000000002	1	f	1	0.4032329615147319
16	54	n/a	n/a	n/a	j	2	2.42861286636753e-17	2	j	1	0.3594095949374605
16	55	n/a	n/a	n/a	j	2	0.01000000000000002	0	j	1	0.3089702294237213
16	56	n/a	n/a	n/a	j	2	0.02000000000000002	0	j	1	0.4039722222660203
16	57	n/a	n/a	n/a	f	2	0.03000000000000003	1	f	1	0.5933435740735149
16	58	n/a	n/a	n/a	j	2	0.02000000000000002	2	j	1	0.3723621961398749
16	59	n/a	n/a	n/a	j	2	0.03000000000000003	1	j	1	0.3372736815654207
16	60	n/a	n/a	n/a	j	2	0.02000000000000002	0	j	1	0.3523437103576725
16	61	n/a	n/a	n/a	f	2	0.03000000000000003	0	f	1	0.2679587906895904
16	62	n/a	n/a	n/a	j	2	0.04000000000000003	0	j	1	0.4322919250262203
16	63	n/a	n/a	n/a	j	2	0.05000000000000003	1	j	1	0.4051459733600495
16	64	n/a	n/a	n/a	j	2	0.04000000000000003	1	j	1	0.3937659762159456
16	65	n/a	n/a	n/a	f	2	0.03000000000000003	1	f	1	0.4131007954856614
16	66	n/a	n/a	n/a	j	2	0.02000000000000002	2	j	1	0.3769075236923527
16	67	n/a	n/a	n/a	j	2	0.03000000000000003	1	j	1	0.3821442154294346
16	68	n/a	n/a	n/a	j	2	0.02000000000000002	1	j	1	0.3880534548516152
16	69	n/a	n/a	n/a	f	2	0.01000000000000002	1	f	1	0.3795654982677661
16	70	n/a	n/a	n/a	j	2	2.42861286636753e-17	0	j	1	0.3699759205628652
16	71	n/a	n/a	n/a	j	2	0.01000000000000002	0	j	1	0.3847135243413504
17	0	f	1	0.7558637661859393	f	1	0.06000000000000002	1	f	1	0.3794095493212808
17	1	n/a	n/a	n/a	j	1	0.05000000000000002	1	f	0	0.3313393534772331
17	2	n/a	n/a	n/a	f	1	0.04000000000000001	1	j	0	0.2234229626483284
17	3	n/a	n/a	n/a	f	1	0.05000000000000002	0	f	1	0.5162386480951682
17	4	n/a	n/a	n/a	f	1	0.06000000000000002	2	f	1	0.2181811391201336
17	5	n/a	n/a	n/a	j	1	0.07000000000000002	2	f	0	0.6057944016793044
17	6	n/a	n/a	n/a	f	1	0.08000000000000002	2	f	1	0.5071211937174667
17	7	n/a	n/a	n/a	f	1	0.09000000000000001	2	f	1	0.3820133551635081
17	8	n/a	n/a	n/a	f	1	0.1	1	f	1	0.3051795579667669
17	9	n/a	n/a	n/a	j	1	0.09000000000000001	1	f	0	0.3560602561628912
17	10	n/a	n/a	n/a	f	1	0.08000000000000002	1	f	1	0.4071627610974247
17	11	n/a	n/a	n/a	f	1	0.07000000000000002	1	f	1	0.3800401875050738
17	12	n/a	n/a	n/a	f	1	0.06000000000000002	1	f	1	0.4230849496962037
17	13	n/a	n/a	n/a	j	1	0.05000000000000002	1	j	1	0.5234966891439399
17	14	n/a	n/a	n/a	f	1	0.04000000000000001	2	f	1	0.4418903408077313
17	15	n/a	n/a	n/a	f	1	0.05000000000000002	2	f	1	0.4125764990894822
17	16	n/a	n/a	n/a	f	1	0.06000000000000002	1	f	1	0.3938825815566815
17	17	n/a	n/a	n/a	j	1	0.05000000000000002	1	j	1	0.3888471694517648
17	18	n/a	n/a	n/a	f	1	0.04000000000000001	1	f	1	0.4176740627008257
17	19	n/a	n/a	n/a	f	1	0.03000000000000001	2	f	1	0.4287204944266705
17	20	n/a	n/a	n/a	f	1	0.04000000000000001	2	f	1	0.3370205139799509
17	21	n/a	n/a	n/a	j	1	0.05000000000000002	0	j	1	0.3332597778935451
17	22	n/a	n/a	n/a	f	1	0.06000000000000002	1	f	1	0.3857852101064054
17	23	n/a	n/a	n/a	f	1	0.05000000000000002	1	f	1	0.45270014066773
17	24	n/a	n/a	n/a	f	1	0.04000000000000001	2	f	1	0.4733159081079066
17	25	n/a	n/a	n/a	j	1	0.05000000000000002	2	j	1	0.8293048896157416
17	26	n/a	n/a	n/a	f	1	0.06000000000000002	2	f	1	0.4567659323074622
17	27	n/a	n/a	n/a	f	1	0.07000000000000002	2	f	1	0.2326952255680226
17	28	n/a	n/a	n/a	f	1	0.08000000000000002	0	f	1	0.4916448993899394
17	29	n/a	n/a	n/a	j	1	0.09000000000000001	2	j	1	0.4242173614911735
17	30	n/a	n/a	n/a	f	1	0.1	1	f	1	0.4684341641695937
17	31	n/a	n/a	n/a	f	1	0.09000000000000001	1	f	1	0.4555211916594999
17	32	n/a	n/a	n/a	f	1	0.08000000000000002	1	f	1	0.4423892634076765
17	33	n/a	n/a	n/a	j	1	0.07000000000000002	1	j	1	0.3984481510997284
17	34	n/a	n/a	n/a	f	1	0.06000000000000002	1	f	1	0.4763986796606332
17	35	n/a	n/a	n/a	f	1	0.05000000000000002	2	f	1	0.4333915504830657
17	36	n/a	n/a	n/a	f	1	0.06000000000000002	1	f	1	0.3962591637828154
17	37	n/a	n/a	n/a	j	1	0.05000000000000002	1	j	1	0.4003700010216562
17	38	n/a	n/a	n/a	f	1	0.04000000000000001	1	f	1	0.4446004884375725
17	39	n/a	n/a	n/a	f	1	0.03000000000000001	2	f	1	0.370259593706578
17	40	n/a	n/a	n/a	f	1	0.04000000000000001	1	f	1	0.4612593719066354
17	41	n/a	n/a	n/a	j	1	0.03000000000000001	2	j	1	0.4021843687223736
17	42	n/a	n/a	n/a	f	1	0.04000000000000001	1	f	1	0.3886963522818405
17	43	n/a	n/a	n/a	f	1	0.03000000000000001	1	f	1	0.4411852918710792
17	44	n/a	n/a	n/a	f	1	0.02000000000000001	2	f	1	0.3728853521461133
17	45	n/a	n/a	n/a	j	1	0.03000000000000001	1	j	1	0.3842530900437851
17	46	n/a	n/a	n/a	f	1	0.02000000000000001	1	f	1	0.3807631976524135
17	47	n/a	n/a	n/a	f	1	0.01000000000000001	1	f	1	0.3362370629474754
17	48	n/a	n/a	n/a	f	1	1.040834085586084e-17	0	f	1	0.3806702554866206
17	49	n/a	n/a	n/a	j	1	0.01000000000000001	1	j	1	0.3861179202212952
17	50	n/a	n/a	n/a	f	1	1.040834085586084e-17	2	f	1	0.441036185293342
17	51	n/a	n/a	n/a	f	1	0.01000000000000001	2	f	1	0.3869623823702568
17	52	n/a	n/a	n/a	f	1	0.02000000000000001	1	f	1	0.3700471952324733
17	53	n/a	n/a	n/a	j	1	0.01000000000000001	0	j	1	0.3890832311153645
17	54	n/a	n/a	n/a	f	1	0.02000000000000001	1	f	1	0.3779315979918465
17	55	n/a	n/a	n/a	f	1	0.01000000000000001	0	f	1	0.3175559748488013
17	56	n/a	n/a	n/a	f	1	0.02000000000000001	0	f	1	0.4083268188260263
17	57	n/a	n/a	n/a	j	1	0.03000000000000001	0	f	0	0.3968521689384943
17	58	n/a	n/a	n/a	f	1	0.02000000000000001	0	j	0	0.433004956721561
17	59	n/a	n/a	n/a	f	1	0.01000000000000001	2	f	1	0.472905936272582
17	60	n/a	n/a	n/a	f	1	0.02000000000000001	2	f	1	0.4527565901953494
17	61	n/a	n/a	n/a	j	1	0.03000000000000001	2	j	1	0.5279091607371811
17	62	n/a	n/a	n/a	f	1	0.04000000000000001	2	f	1	0.404702074767556
17	63	n/a	n/a	n/a	f	1	0.05000000000000002	1	f	1	0.4249172786221607
17	64	n/a	n/a	n/a	f	1	0.04000000000000001	1	f	1	0.3906532693072222
17	65	n/a	n/a	n/a	j	1	0.03000000000000001	1	j	1	0.3695881864259718
17	66	n/a	n/a	n/a	f	1	0.02000000000000001	0	f	1	0.3355625195690664
17	67	n/a	n/a	n/a	f	1	0.03000000000000001	0	f	1	0.4586207840329735
17	68	n/a	n/a	n/a	f	1	0.04000000000000001	2	f	1	0.4967812364047859
17	69	n/a	n/a	n/a	j	1	0.05000000000000002	2	f	0	0.3955578211462125
17	70	n/a	n/a	n/a	f	1	0.06000000000000002	1	f	1	0.5346349226456368
17	71	n/a	n/a	n/a	f	1	0.05000000000000002	2	f	1	0.4344566789659439
18	0	f	1	1.546599657085608	f	9	0.14	0	f	1	0.8659471917490009
18	1	n/a	n/a	n/a	j	9	0.15	1	j	1	0.8524383631011005
18	2	n/a	n/a	n/a	f	9	0.14	1	f	1	0.8969553746574093
18	3	n/a	n/a	n/a	f	9	0.13	1	f	1	0.9727100735035492
18	4	n/a	n/a	n/a	f	9	0.12	1	f	1	0.8568485538853565
18	5	n/a	n/a	n/a	j	9	0.11	0	j	1	0.891531943299924
18	6	n/a	n/a	n/a	f	9	0.12	1	f	1	0.9053612228308339
18	7	n/a	n/a	n/a	f	9	0.11	1	f	1	0.8872041460126638
18	8	n/a	n/a	n/a	f	9	0.1	1	f	1	0.8992450017976807
18	9	n/a	n/a	n/a	j	9	0.09000000000000002	1	j	1	0.8900508558872389
18	10	n/a	n/a	n/a	f	9	0.08000000000000003	0	f	1	0.7929625112301437
18	11	n/a	n/a	n/a	f	9	0.09000000000000002	0	f	1	0.9573945747979451
18	12	n/a	n/a	n/a	f	9	0.1	1	f	1	0.9933038883464178
18	13	n/a	n/a	n/a	j	9	0.09000000000000002	1	j	1	0.8252889902360039
18	14	n/a	n/a	n/a	f	9	0.08000000000000003	0	f	1	0.9812308164255228
18	15	n/a	n/a	n/a	f	9	0.09000000000000002	1	f	1	1.078214244771516
18	16	n/a	n/a	n/a	f	9	0.08000000000000003	2	f	1	0.8350499122170731
18	17	n/a	n/a	n/a	j	9	0.09000000000000002	0	j	1	0.9031442958366824
18	18	n/a	n/a	n/a	f	9	0.1	1	f	1	0.8539548027329147
18	19	n/a	n/a	n/a	f	9	0.09000000000000002	0	f	1	0.8410666338313604
18	20	n/a	n/a	n/a	f	9	0.1	0	f	1	1.016985606504022
18	21	n/a	n/a	n/a	j	9	0.11	1	j	1	1.292792307358468
18	22	n/a	n/a	n/a	f	9	0.1	2	f	1	0.8736730796808843
18	23	n/a	n/a	n/a	f	9	0.11	0	f	1	1.021325377936591
18	24	n/a	n/a	n/a	f	9	0.12	1	f	1	1.017156665679067
18	25	n/a	n/a	n/a	j	9	0.11	1	j	1	0.8926153181091649
18	26	n/a	n/a	n/a	f	9	0.1	1	f	1	1.001585433506989
18	27	n/a	n/a	n/a	f	9	0.09000000000000002	1	f	1	0.9415388141787844
18	28	n/a	n/a	n/a	f	9	0.08000000000000003	1	f	1	0.9792345557798399
18	29	n/a	n/a	n/a	j	9	0.07000000000000003	1	j	1	0.8805297018552665
18	30	n/a	n/a	n/a	f	9	0.06000000000000003	0	f	1	0.8673073973477585
18	31	n/a	n/a	n/a	f	9	0.07000000000000003	0	f	1	1.021894719917327
18	32	n/a	n/a	n/a	f	9	0.08000000000000003	1	f	1	1.202235002245288
18	33	n/a	n/a	n/a	j	9	0.07000000000000003	2	j	1	1.028886478845379
18	34	n/a	n/a	n/a	f	9	0.08000000000000003	1	f	1	0.8242857281438773
18	35	n/a	n/a	n/a	f	9	0.07000000000000003	0	f	1	0.9006904518755618
18	36	n/a	n/a	n/a	f	9	0.08000000000000003	0	f	1	1.001984001413803
18	37	n/a	n/a	n/a	j	9	0.09000000000000002	1	j	1	1.118961682179361
18	38	n/a	n/a	n/a	f	9	0.08000000000000003	2	f	1	1.01155504770577
18	39	n/a	n/a	n/a	f	9	0.09000000000000002	1	f	1	0.9458104470395483
18	40	n/a	n/a	n/a	f	9	0.08000000000000003	1	f	1	1.045494614780182
18	41	n/a	n/a	n/a	j	9	0.07000000000000003	1	j	1	0.8586865848046727
18	42	n/a	n/a	n/a	f	9	0.06000000000000003	0	f	1	0.9678223424998578
18	43	n/a	n/a	n/a	f	9	0.07000000000000003	1	f	1	1.154636929742992
18	44	n/a	n/a	n/a	f	9	0.06000000000000003	2	f	1	0.8851753841299796
18	45	n/a	n/a	n/a	j	9	0.07000000000000003	0	j	1	0.9358901549276197
18	46	n/a	n/a	n/a	f	9	0.08000000000000003	1	f	1	1.186891278775875
18	47	n/a	n/a	n/a	f	9	0.07000000000000003	2	f	1	1.062399823465967
18	48	n/a	n/a	n/a	f	9	0.08000000000000003	1	f	1	0.803369466739241
18	49	n/a	n/a	n/a	j	9	0.07000000000000003	0	j	1	0.721187504241243
18	50	n/a	n/a	n/a	f	9	0.08000000000000003	0	f	1	0.7821906294993823
18	51	n/a	n/a	n/a	f	9	0.09000000000000002	0	f	1	1.013278468948556
18	52	n/a	n/a	n/a	f	9	0.1	1	f	1	1.192219487173134
18	53	n/a	n/a	n/a	j	9	0.09000000000000002	2	j	1	0.9320128134713741
18	54	n/a	n/a	n/a	f	9	0.1	1	f	1	0.9201783691096352
18	55	n/a	n/a	n/a	f	9	0.09000000000000002	1	f	1	1.09175956605759
18	56	n/a	n/a	n/a	f	9	0.08000000000000003	2	f	1	0.9188871573860524
18	57	n/a	n/a	n/a	j	9	0.09000000000000002	1	j	1	0.762697580474196
18	58	n/a	n/a	n/a	f	9	0.08000000000000003	0	f	1	0.9258387174195377
18	59	n/a	n/a	n/a	f	9	0.09000000000000002	1	f	1	0.8906641030480387
18	60	n/a	n/a	n/a	f	9	0.08000000000000003	0	f	1	0.7746594639320392
18	61	n/a	n/a	n/a	j	9	0.09000000000000002	0	j	1	0.8206475844490342
18	62	n/a	n/a	n/a	f	9	0.1	0	f	1	0.9145861593715381
18	63	n/a	n/a	n/a	f	9	0.11	1	f	1	1.119734584572143
18	64	n/a	n/a	n/a	f	9	0.1	2	f	1	1.004243408096954
18	65	n/a	n/a	n/a	j	9	0.11	1	j	1	0.7953311106975889
18	66	n/a	n/a	n/a	f	9	0.1	0	f	1	0.8942680349136936
18	67	n/a	n/a	n/a	f	9	0.11	1	f	1	0.976979710671003
18	68	n/a	n/a	n/a	f	9	0.1	1	f	1	0.8293944105971605
18	69	n/a	n/a	n/a	j	9	0.09000000000000002	0	j	1	0.8408910130674485
18	70	n/a	n/a	n/a	f	9	0.1	0	f	1	0.7550731876690406
18	71	n/a	n/a	n/a	f	9	0.11	0	f	1	0.9181017106457148
19	0	f	1	0.06487533492327202	f	3	0.02000000000000002	2	f	1	0.4974894214101369
19	1	n/a	n/a	n/a	f	3	0.03000000000000003	2	f	1	0.3883750461100135
19	2	n/a	n/a	n/a	j	3	0.04000000000000003	1	j	1	0.3851887837663526
19	3	n/a	n/a	n/a	f	3	0.03000000000000003	1	f	1	0.4413332580588758
19	4	n/a	n/a	n/a	f	3	0.02000000000000002	2	f	1	0.3802842319419142
19	5	n/a	n/a	n/a	f	3	0.03000000000000003	1	f	1	0.4363158071791986
19	6	n/a	n/a	n/a	f	3	0.02000000000000002	2	f	1	0.4021521525719436
19	7	n/a	n/a	n/a	f	3	0.03000000000000003	1	f	1	0.3992005264008185
19	8	n/a	n/a	n/a	j	3	0.02000000000000002	1	j	1	0.4189284966851119
19	9	n/a	n/a	n/a	f	3	0.01000000000000002	2	f	1	0.4650902422581566
19	10	n/a	n/a	n/a	f	3	0.02000000000000002	2	f	1	0.347792110638693
19	11	n/a	n/a	n/a	f	3	0.03000000000000003	0	f	1	0.4231029109068913
19	12	n/a	n/a	n/a	f	3	0.04000000000000003	1	f	1	0.4769226909556892
19	13	n/a	n/a	n/a	f	3	0.03000000000000003	2	f	1	0.3601451494178036
19	14	n/a	n/a	n/a	j	3	0.04000000000000003	1	j	1	0.3950668812904041
19	15	n/a	n/a	n/a	f	3	0.03000000000000003	1	f	1	0.6250787585013313
19	16	n/a	n/a	n/a	f	3	0.02000000000000002	2	f	1	0.4129402849503094
19	17	n/a	n/a	n/a	f	3	0.03000000000000003	1	f	1	0.3530895283765858
19	18	n/a	n/a	n/a	f	3	0.02000000000000002	0	f	1	0.4439022818696685
19	19	n/a	n/a	n/a	f	3	0.03000000000000003	2	f	1	0.407760042740847
19	20	n/a	n/a	n/a	j	3	0.04000000000000003	1	j	1	0.3715915745415259
19	21	n/a	n/a	n/a	f	3	0.03000000000000003	1	f	1	0.3760157351644011
19	22	n/a	n/a	n/a	f	3	0.02000000000000002	1	f	1	0.4266925878328038
19	23	n/a	n/a	n/a	f	3	0.01000000000000002	2	f	1	0.3989886981144082
19	24	n/a	n/a	n/a	f	3	0.02000000000000002	1	f	1	0.4097266531316563
19	25	n/a	n/a	n/a	f	3	0.01000000000000002	2	f	1	0.3817818550742231
19	26	n/a	n/a	n/a	j	3	0.02000000000000002	1	j	1	0.346766040645889
19	27	n/a	n/a	n/a	f	3	0.01000000000000002	0	f	1	0.4383531220228178
19	28	n/a	n/a	n/a	f	3	0.02000000000000002	2	f	1	0.8586737553559942
19	29	n/a	n/a	n/a	f	3	0.03000000000000003	2	f	1	0.4327871413697721
19	30	n/a	n/a	n/a	f	3	0.04000000000000003	2	f	1	0.4045903161022579
19	31	n/a	n/a	n/a	f	3	0.05000000000000003	1	f	1	0.3933021207340062
19	32	n/a	n/a	n/a	j	3	0.04000000000000003	1	j	1	0.35061686791596
19	33	n/a	n/a	n/a	f	3	0.03000000000000003	0	f	1	0.3945671033870894
19	34	n/a	n/a	n/a	f	3	0.04000000000000003	1	f	1	0.4155381037271582
19	35	n/a	n/a	n/a	f	3	0.03000000000000003	1	f	1	0.4372418075508904
19	36	n/a	n/a	n/a	f	3	0.02000000000000002	2	f	1	0.498397460571141
19	37	n/a	n/a	n/a	f	3	0.03000000000000003	2	f	1	0.3664726285351207
19	38	n/a	n/a	n/a	j	3	0.04000000000000003	1	j	1	0.3823856939707184
19	39	n/a	n/a	n/a	f	3	0.03000000000000003	1	f	1	0.419414019677788
19	40	n/a	n/a	n/a	f	3	0.02000000000000002	2	f	1	0.392512397505925
19	41	n/a	n/a	n/a	f	3	0.03000000000000003	1	f	1	0.3811010395293124
19	42	n/a	n/a	n/a	f	3	0.02000000000000002	1	f	1	0.408045711563318
19	43	n/a	n/a	n/a	f	3	0.01000000000000002	2	f	1	0.4292695944022853
19	44	n/a	n/a	n/a	j	3	0.02000000000000002	2	j	1	0.3522436407365603
19	45	n/a	n/a	n/a	f	3	0.03000000000000003	0	f	1	0.396251751226373
19	46	n/a	n/a	n/a	f	3	0.04000000000000003	1	f	1	0.3043901198543608
19	47	n/a	n/a	n/a	f	3	0.03000000000000003	0	f	1	0.3962557425984414
19	48	n/a	n/a	n/a	f	3	0.04000000000000003	1	f	1	0.5364239165937761
19	49	n/a	n/a	n/a	f	3	0.03000000000000003	1	j	0	0.1147618941758992
19	50	n/a	n/a	n/a	j	3	0.04000000000000003	1	f	0	0.6631707872002153
19	51	n/a	n/a	n/a	f	3	0.05000000000000003	2	f	1	0.3941043882950908
19	52	n/a	n/a	n/a	f	3	0.06000000000000003	1	f	1	0.4071405234135455
19	53	n/a	n/a	n/a	f	3	0.05000000000000003	1	f	1	0.4172871838527499
19	54	n/a	n/a	n/a	f	3	0.04000000000000003	1	f	1	0.4360295681544812
19	55	n/a	n/a	n/a	f	3	0.03000000000000003	2	f	1	0.359026707461453
19	56	n/a	n/a	n/a	j	3	0.04000000000000003	1	j	1	0.3645567656931235
19	57	n/a	n/a	n/a	f	3	0.03000000000000003	1	f	1	0.3784903913183371
19	58	n/a	n/a	n/a	f	3	0.02000000000000002	1	f	1	0.3669216588750714
19	59	n/a	n/a	n/a	f	3	0.01000000000000002	0	f	1	0.4108556437131483
19	60	n/a	n/a	n/a	f	3	0.02000000000000002	2	f	1	0.382929377083201
19	61	n/a	n/a	n/a	f	3	0.03000000000000003	1	f	1	0.3398364332097117
19	62	n/a	n/a	n/a	j	3	0.02000000000000002	0	j	1	0.3605280368938111
19	63	n/a	n/a	n/a	f	3	0.03000000000000003	0	j	0	0.5727420615730807
19	64	n/a	n/a	n/a	f	3	0.02000000000000002	0	j	0	0.4315908675052924
19	65	n/a	n/a	n/a	f	3	0.03000000000000003	2	f	1	0.4596930400002748
19	66	n/a	n/a	n/a	f	3	0.04000000000000003	2	f	1	0.4158482910279417
19	67	n/a	n/a	n/a	f	3	0.05000000000000003	1	f	1	0.3702678615663899
19	68	n/a	n/a	n/a	j	3	0.04000000000000003	1	j	1	0.3995272494503297
19	69	n/a	n/a	n/a	f	3	0.03000000000000003	1	f	1	0.3463175804936327
19	70	n/a	n/a	n/a	f	3	0.02000000000000002	0	f	1	0.4211516958457651
19	71	n/a	n/a	n/a	f	3	0.03000000000000003	2	f	1	0.4327760225132806
20	0	f	1	0.06463015008193906	f	11	0.12	0	f	1	0.9994223901594523
20	1	n/a	n/a	n/a	f	11	0.13	1	f	1	1.082018030778272
20	2	n/a	n/a	n/a	j	11	0.12	1	j	1	1.333947435792652
20	3	n/a	n/a	n/a	f	11	0.11	2	f	1	0.9950734955637017
20	4	n/a	n/a	n/a	f	11	0.12	1	f	1	1.042874558304902
20	5	n/a	n/a	n/a	f	11	0.11	1	f	1	1.10284876258811
20	6	n/a	n/a	n/a	f	11	0.1	2	f	1	1.066768960052286
20	7	n/a	n/a	n/a	f	11	0.11	1	f	1	0.8888166639080737
20	8	n/a	n/a	n/a	j	11	0.1	1	j	1	0.9416614065994509
20	9	n/a	n/a	n/a	f	11	0.09000000000000002	1	f	1	1.000726146216039
20	10	n/a	n/a	n/a	f	11	0.08000000000000003	1	f	1	0.9971889274456771
20	11	n/a	n/a	n/a	f	11	0.07000000000000003	1	f	1	1.067438941856381
20	12	n/a	n/a	n/a	f	11	0.06000000000000003	2	f	1	0.9205236235575285
20	13	n/a	n/a	n/a	f	11	0.07000000000000003	1	f	1	0.9882573573995614
20	14	n/a	n/a	n/a	j	11	0.06000000000000003	1	j	1	0.9855648858792847
20	15	n/a	n/a	n/a	f	11	0.05000000000000003	1	f	1	0.8462790921767009
20	16	n/a	n/a	n/a	f	11	0.04000000000000003	0	f	1	1.000693074776791
20	17	n/a	n/a	n/a	f	11	0.05000000000000003	1	f	1	1.125726217505871
20	18	n/a	n/a	n/a	f	11	0.04000000000000003	2	f	1	1.009819367201999
20	19	n/a	n/a	n/a	f	11	0.05000000000000003	1	f	1	0.9691825480840635
20	20	n/a	n/a	n/a	j	11	0.04000000000000003	1	j	1	0.9145211568975355
20	21	n/a	n/a	n/a	f	11	0.03000000000000003	0	f	1	0.9018855853646528
20	22	n/a	n/a	n/a	f	11	0.04000000000000003	0	f	1	1.14425962450332
20	23	n/a	n/a	n/a	f	11	0.05000000000000003	2	f	1	1.099722656043014
20	24	n/a	n/a	n/a	f	11	0.06000000000000003	2	f	1	0.7698204847984016
20	25	n/a	n/a	n/a	f	11	0.07000000000000003	0	f	1	0.6125392652029404
20	26	n/a	n/a	n/a	j	11	0.08000000000000003	0	j	1	0.7862102351646172
20	27	n/a	n/a	n/a	f	11	0.09000000000000002	0	f	1	1.015596891054884
20	28	n/a	n/a	n/a	f	11	0.1	1	f	1	1.010219645686448
20	29	n/a	n/a	n/a	f	11	0.09000000000000002	1	f	1	1.072619754253537
20	30	n/a	n/a	n/a	f	11	0.08000000000000003	2	f	1	0.8674220069951843
20	31	n/a	n/a	n/a	f	11	0.09000000000000002	0	f	1	0.6393162992608268
20	32	n/a	n/a	n/a	j	11	0.1	0	j	1	0.7241468280844856
20	33	n/a	n/a	n/a	f	11	0.11	0	f	1	1.167015057202661
20	34	n/a	n/a	n/a	f	11	0.12	2	f	1	0.8291506512468914
20	35	n/a	n/a	n/a	f	11	0.13	0	f	1	0.6805418470612494
20	36	n/a	n/a	n/a	f	11	0.14	0	f	1	1.187357415052247
20	37	n/a	n/a	n/a	f	11	0.15	2	f	1	1.510976867662976
20	38	n/a	n/a	n/a	j	11	0.16	2	f	0	0.8899964020529296
20	39	n/a	n/a	n/a	f	11	0.17	1	f	1	1.292856454558205
20	40	n/a	n/a	n/a	f	11	0.16	2	f	1	1.103996569683659
20	41	n/a	n/a	n/a	f	11	0.17	1	f	1	0.6757259609148605
20	42	n/a	n/a	n/a	f	11	0.16	0	f	1	0.6559865866729524
20	43	n/a	n/a	n/a	f	11	0.17	0	f	1	0.6506883136316901
20	44	n/a	n/a	n/a	j	11	0.18	0	j	1	0.6075622983335052
20	45	n/a	n/a	n/a	f	11	0.1900000000000001	0	f	1	1.050566804595292
20	46	n/a	n/a	n/a	f	11	0.2000000000000001	1	f	1	0.6695752429513959
20	47	n/a	n/a	n/a	f	11	0.1900000000000001	0	f	1	1.098582261503907
20	48	n/a	n/a	n/a	f	11	0.2000000000000001	1	f	1	1.445401045391918
20	49	n/a	n/a	n/a	f	11	0.1900000000000001	2	f	1	1.441088358333218
20	50	n/a	n/a	n/a	j	11	0.2000000000000001	2	j	1	0.797190809098538
20	51	n/a	n/a	n/a	f	11	0.2100000000000001	1	f	1	0.6331595942319836
20	52	n/a	n/a	n/a	f	11	0.2000000000000001	0	f	1	0.7892744752898579
20	53	n/a	n/a	n/a	f	11	0.2100000000000001	1	f	1	1.035063710995018
20	54	n/a	n/a	n/a	f	11	0.2000000000000001	1	f	1	0.7913405850995332
20	55	n/a	n/a	n/a	f	11	0.1900000000000001	0	f	1	0.8751139681844506
20	56	n/a	n/a	n/a	j	11	0.2000000000000001	1	j	1	0.7762751179106999
20	57	n/a	n/a	n/a	f	11	0.1900000000000001	0	f	1	0.8119489399832673
20	58	n/a	n/a	n/a	f	11	0.2000000000000001	1	f	1	0.934501154377358
20	59	n/a	n/a	n/a	f	11	0.1900000000000001	1	f	1	0.8111281410092488
20	60	n/a	n/a	n/a	f	11	0.18	1	f	1	0.8069873684144113
20	61	n/a	n/a	n/a	f	11	0.17	0	f	1	0.7298456647113198
20	62	n/a	n/a	n/a	j	11	0.18	0	j	1	0.7584912352176616
20	63	n/a	n/a	n/a	f	11	0.1900000000000001	0	f	1	0.6756455630966229
20	64	n/a	n/a	n/a	f	11	0.2000000000000001	0	f	1	0.7506878004642203
20	65	n/a	n/a	n/a	f	11	0.2100000000000001	0	f	1	0.5785968471609522
20	66	n/a	n/a	n/a	f	11	0.2200000000000001	0	f	1	0.7296232877706643
20	67	n/a	n/a	n/a	f	11	0.2300000000000001	0	f	1	0.6285275966947665
20	68	n/a	n/a	n/a	j	11	0.2400000000000001	0	j	1	1.02553286361217
20	69	n/a	n/a	n/a	f	11	0.2500000000000001	1	f	1	1.376613016807823
20	70	n/a	n/a	n/a	f	11	0.2400000000000001	2	f	1	0.8443484042072669
20	71	n/a	n/a	n/a	f	11	0.2500000000000001	1	f	1	0.7601419563143281
21	0	f	1	0.6899646420642966	f	5	0.06000000000000002	2	f	1	0.6780187241383828
21	1	n/a	n/a	n/a	j	5	0.07000000000000002	2	j	1	0.6002954192081233
21	2	n/a	n/a	n/a	f	5	0.08000000000000002	1	f	1	0.5792691097303759
21	3	n/a	n/a	n/a	f	5	0.07000000000000002	1	f	1	0.6458550364768598
21	4	n/a	n/a	n/a	f	5	0.06000000000000002	2	f	1	0.627147149090888
21	5	n/a	n/a	n/a	j	5	0.07000000000000002	1	j	1	0.5838543510908494
21	6	n/a	n/a	n/a	f	5	0.06000000000000002	1	f	1	0.5980836239905329
21	7	n/a	n/a	n/a	f	5	0.05000000000000002	1	f	1	0.5455576215754263
21	8	n/a	n/a	n/a	f	5	0.04000000000000001	0	f	1	0.6444053098966833
21	9	n/a	n/a	n/a	j	5	0.05000000000000002	2	j	1	0.5761298886645818
21	10	n/a	n/a	n/a	f	5	0.06000000000000002	1	f	1	0.6349457371688914
21	11	n/a	n/a	n/a	f	5	0.05000000000000002	1	f	1	0.6774496672587702
21	12	n/a	n/a	n/a	f	5	0.04000000000000001	2	f	1	0.651634841109626
21	13	n/a	n/a	n/a	j	5	0.05000000000000002	2	j	1	0.6307582084264141
21	14	n/a	n/a	n/a	f	5	0.06000000000000002	1	f	1	0.5948454736790154
21	15	n/a	n/a	n/a	f	5	0.05000000000000002	1	f	1	0.6052336126740556
21	16	n/a	n/a	n/a	f	5	0.04000000000000001	1	f	1	0.7556696140090935
21	17	n/a	n/a	n/a	j	5	0.03000000000000001	2	j	1	0.5826674854761222
21	18	n/a	n/a	n/a	f	5	0.04000000000000001	1	f	1	0.6007874994538724
21	19	n/a	n/a	n/a	f	5	0.03000000000000001	1	f	1	0.6045097472378984
21	20	n/a	n/a	n/a	f	5	0.02000000000000001	2	f	1	0.5763588228583103
21	21	n/a	n/a	n/a	j	5	0.03000000000000001	1	j	1	0.5880116593907587
21	22	n/a	n/a	n/a	f	5	0.02000000000000001	1	f	1	0.5996183099487098
21	23	n/a	n/a	n/a	f	5	0.01000000000000001	2	f	1	0.5460596802586224
21	24	n/a	n/a	n/a	f	5	0.02000000000000001	0	f	1	0.6304337661713362
21	25	n/a	n/a	n/a	j	5	0.03000000000000001	2	j	1	0.5552327288605738
21	26	n/a	n/a	n/a	f	5	0.04000000000000001	2	j	0	0.7433485062938416
21	27	n/a	n/a	n/a	f	5	0.03000000000000001	2	f	1	0.666309438078315
21	28	n/a	n/a	n/a	f	5	0.04000000000000001	2	f	1	0.8772165706177475
21	29	n/a	n/a	n/a	j	5	0.05000000000000002	2	j	1	0.7282699245406548
21	30	n/a	n/a	n/a	f	5	0.06000000000000002	2	f	1	0.5231374648719793
21	31	n/a	n/a	n/a	f	5	0.07000000000000002	1	f	1	0.5821163898071973
21	32	n/a	n/a	n/a	f	5	0.06000000000000002	1	f	1	0.5301449042308377
21	33	n/a	n/a	n/a	j	5	0.05000000000000002	0	j	1	0.5901444822957274
21	34	n/a	n/a	n/a	f	5	0.06000000000000002	1	f	1	0.4810463575995527
21	35	n/a	n/a	n/a	f	5	0.05000000000000002	0	f	1	0.5394525193842128
21	36	n/a	n/a	n/a	f	5	0.06000000000000002	1	f	1	0.4971632685774239
21	37	n/a	n/a	n/a	j	5	0.05000000000000002	0	j	1	0.6854751938517438
21	38	n/a	n/a	n/a	f	5	0.06000000000000002	2	f	1	0.5050642070709728
21	39	n/a	n/a	n/a	f	5	0.07000000000000002	0	f	1	0.5098227884009248
21	40	n/a	n/a	n/a	f	5	0.08000000000000002	1	f	1	0.4986819890036713
21	41	n/a	n/a	n/a	j	5	0.07000000000000002	0	j	1	0.4479623715451453
21	42	n/a	n/a	n/a	f	5	0.08000000000000002	0	j	0	0.6027287360629998
21	43	n/a	n/a	n/a	f	5	0.09000000000000001	1	f	1	0.5812659405783052
21	44	n/a	n/a	n/a	f	5	0.08000000000000002	1	f	1	0.4974261295283213
21	45	n/a	n/a	n/a	j	5	0.07000000000000002	0	j	1	0.956288962290273
21	46	n/a	n/a	n/a	f	5	0.08000000000000002	2	f	1	0.5364604092028458
21	47	n/a	n/a	n/a	f	5	0.09000000000000001	1	f	1	0.5156633190345019
21	48	n/a	n/a	n/a	f	5	0.08000000000000002	1	f	1	0.5127601596323075
21	49	n/a	n/a	n/a	j	5	0.07000000000000002	0	j	1	0.4433680070214905
21	50	n/a	n/a	n/a	f	5	0.08000000000000002	0	f	1	0.4434780550946016
21	51	n/a	n/a	n/a	f	5	0.09000000000000001	0	f	1	0.5104782301496016
21	52	n/a	n/a	n/a	f	5	0.1	0	j	0	0.5535651869431604
21	53	n/a	n/a	n/a	j	5	0.09000000000000001	1	j	1	0.5399756753758993
21	54	n/a	n/a	n/a	f	5	0.08000000000000002	1	f	1	0.5784186605014838
21	55	n/a	n/a	n/a	f	5	0.07000000000000002	1	f	1	0.5984274529328104
21	56	n/a	n/a	n/a	f	5	0.06000000000000002	1	f	1	0.5463165541295893
21	57	n/a	n/a	n/a	j	5	0.05000000000000002	1	j	1	0.5369821397180203
21	58	n/a	n/a	n/a	f	5	0.04000000000000001	0	f	1	0.4923365486756666
21	59	n/a	n/a	n/a	f	5	0.05000000000000002	0	f	1	0.5930157106486149
21	60	n/a	n/a	n/a	f	5	0.06000000000000002	1	f	1	0.5603639341134112
21	61	n/a	n/a	n/a	j	5	0.05000000000000002	1	f	0	0.6430439639225369
21	62	n/a	n/a	n/a	f	5	0.04000000000000001	2	f	1	0.5653026977815898
21	63	n/a	n/a	n/a	f	5	0.05000000000000002	1	f	1	0.5621070271590725
21	64	n/a	n/a	n/a	f	5	0.04000000000000001	1	f	1	0.6382086910598446
21	65	n/a	n/a	n/a	j	5	0.03000000000000001	2	j	1	0.5264728337933775
21	66	n/a	n/a	n/a	f	5	0.04000000000000001	0	f	1	0.5070188433164731
21	67	n/a	n/a	n/a	f	5	0.05000000000000002	0	f	1	0.5761384416109649
21	68	n/a	n/a	n/a	f	5	0.06000000000000002	1	f	1	0.5488915650203126
21	69	n/a	n/a	n/a	j	5	0.05000000000000002	1	j	1	0.5774410572921624
21	70	n/a	n/a	n/a	f	5	0.04000000000000001	1	f	1	0.493510584870819
21	71	n/a	n/a	n/a	f	5	0.03000000000000001	0	f	1	0.5458002405066509
22	0	j	1	2.733359220292186	j	6	0.02000000000000001	0	j	1	0.6242907458654372
22	1	n/a	n/a	n/a	f	6	0.03000000000000001	2	f	1	0.6127425405284157
22	2	n/a	n/a	n/a	j	6	0.04000000000000001	1	j	1	0.5919092428375734
22	3	n/a	n/a	n/a	j	6	0.03000000000000001	1	f	0	0.6264620570727857
22	4	n/a	n/a	n/a	j	6	0.02000000000000001	1	f	0	0.5971516365534626
22	5	n/a	n/a	n/a	f	6	0.03000000000000001	1	j	0	0.6645669152203482
22	6	n/a	n/a	n/a	j	6	0.02000000000000001	2	j	1	0.563436727199587
