blockLoop_thisRepN	trialLoop_thisRepN	firstKey	readyKey_corr	readyKey_rt	targetKey	blockType	margin	outcome	trialResp_keys	trialResp_corr	trialResp_rt
0	0	f	1	2.778092906810343	f	5	0.1	0	f	1	0.5626732329837978
0	1	n/a	n/a	n/a	j	5	0.11	1	j	1	0.6288754169363528
0	2	n/a	n/a	n/a	f	5	0.1	1	f	1	0.5702046838123351
0	3	n/a	n/a	n/a	f	5	0.09000000000000001	1	f	1	0.624518254538998
0	4	n/a	n/a	n/a	f	5	0.08000000000000002	1	f	1	0.5566616433206946
0	5	n/a	n/a	n/a	j	5	0.07000000000000002	1	j	1	0.593340152874589
0	6	n/a	n/a	n/a	f	5	0.06000000000000002	1	f	1	0.5763365852180868
0	7	n/a	n/a	n/a	f	5	0.05000000000000002	1	f	1	0.638218384468928
0	8	n/a	n/a	n/a	f	5	0.04000000000000001	2	f	1	0.532163972966373
0	9	n/a	n/a	n/a	j	5	0.05000000000000002	1	j	1	0.5391463234554976
0	10	n/a	n/a	n/a	f	5	0.04000000000000001	0	f	1	0.5939553957432508
0	11	n/a	n/a	n/a	f	5	0.05000000000000002	1	f	1	0.6114097044337541
0	12	n/a	n/a	n/a	f	5	0.04000000000000001	1	f	1	0.561835328117013
0	13	n/a	n/a	n/a	j	5	0.03000000000000001	1	j	1	0.5892079332843423
0	14	n/a	n/a	n/a	f	5	0.02000000000000001	1	f	1	0.5232332581654191
0	15	n/a	n/a	n/a	f	5	0.01000000000000001	0	f	1	0.6250816094689071
0	16	n/a	n/a	n/a	f	5	0.02000000000000001	2	f	1	0.5760437888093293
0	17	n/a	n/a	n/a	j	5	0.03000000000000001	1	j	1	0.5882434446830302
0	18	n/a	n/a	n/a	f	5	0.02000000000000001	1	f	1	0.5530246398411691
0	19	n/a	n/a	n/a	f	5	0.01000000000000001	0	f	1	0.5877496537286788
0	20	n/a	n/a	n/a	f	5	0.02000000000000001	1	f	1	0.5455382347572595
0	21	n/a	n/a	n/a	j	5	0.01000000000000001	0	j	1	0.5825263615697622
0	22	n/a	n/a	n/a	f	5	0.02000000000000001	1	f	1	0.5708769464399666
0	23	n/a	n/a	n/a	f	5	0.01000000000000001	0	f	1	0.6348909982480109
0	24	n/a	n/a	n/a	f	5	0.02000000000000001	2	f	1	0.5268389005213976
0	25	n/a	n/a	n/a	j	5	0.03000000000000001	0	j	1	0.516894374974072
0	26	n/a	n/a	n/a	f	5	0.04000000000000001	0	f	1	0.5706887813284993
0	27	n/a	n/a	n/a	f	5	0.05000000000000002	1	f	1	0.6097490049432963
0	28	n/a	n/a	n/a	f	5	0.04000000000000001	1	f	1	0.5347227330785245
0	29	n/a	n/a	n/a	j	5	0.03000000000000001	0	j	1	0.5747177950106561
0	30	n/a	n/a	n/a	f	5	0.04000000000000001	1	f	1	0.532772658392787
0	31	n/a	n/a	n/a	f	5	0.03000000000000001	0	f	1	0.6335062740836293
0	32	n/a	n/a	n/a	f	5	0.04000000000000001	2	f	1	0.5438498805742711
0	33	n/a	n/a	n/a	j	5	0.05000000000000002	1	j	1	0.5420814140234143
0	34	n/a	n/a	n/a	f	5	0.04000000000000001	0	f	1	0.5945546729490161
0	35	n/a	n/a	n/a	f	5	0.05000000000000002	1	f	1	0.639411237090826
0	36	n/a	n/a	n/a	f	5	0.04000000000000001	2	f	1	0.5336199714802206
0	37	n/a	n/a	n/a	j	5	0.05000000000000002	1	j	1	0.5792135156225413
0	38	n/a	n/a	n/a	f	5	0.04000000000000001	1	f	1	0.5442855113651603
0	39	n/a	n/a	n/a	f	5	0.03000000000000001	0	f	1	0.5913179481867701
0	40	n/a	n/a	n/a	f	5	0.04000000000000001	1	f	1	0.5412922608666122
0	41	n/a	n/a	n/a	j	5	0.03000000000000001	0	j	1	0.6280289592687041
0	42	n/a	n/a	n/a	f	5	0.04000000000000001	2	f	1	0.5621227077208459
0	43	n/a	n/a	n/a	f	5	0.05000000000000002	1	f	1	0.5901487588416785
0	44	n/a	n/a	n/a	f	5	0.04000000000000001	1	f	1	0.5653659896925092
0	45	n/a	n/a	n/a	j	5	0.03000000000000001	1	j	1	0.6017220527864993
0	46	n/a	n/a	n/a	f	5	0.02000000000000001	1	f	1	0.5747004041913897
0	47	n/a	n/a	n/a	f	5	0.01000000000000001	0	f	1	0.5950735525693744
0	48	n/a	n/a	n/a	f	5	0.02000000000000001	1	f	1	0.5700156632810831
0	49	n/a	n/a	n/a	j	5	0.01000000000000001	0	j	1	0.5850400764029473
0	50	n/a	n/a	n/a	f	5	0.02000000000000001	1	f	1	0.574988923734054
0	51	n/a	n/a	n/a	f	5	0.01000000000000001	1	f	1	0.6299471028614789
0	52	n/a	n/a	n/a	f	5	1.040834085586084e-17	2	f	1	0.5089195959735662
0	53	n/a	n/a	n/a	j	5	0.01000000000000001	0	j	1	0.6019010946620256
0	54	n/a	n/a	n/a	f	5	0.02000000000000001	1	f	1	0.5844630366191268
0	55	n/a	n/a	n/a	f	5	0.01000000000000001	1	f	1	0.610747990431264
0	56	n/a	n/a	n/a	f	5	1.040834085586084e-17	2	f	1	0.5707261289935559
0	57	n/a	n/a	n/a	j	5	0.01000000000000001	0	j	1	0.5937210447154939
0	58	n/a	n/a	n/a	f	5	0.02000000000000001	1	f	1	0.5743460264056921
0	59	n/a	n/a	n/a	f	5	0.01000000000000001	1	f	1	0.6208350653760135
0	60	n/a	n/a	n/a	f	5	1.040834085586084e-17	2	f	1	0.5536441593430936
0	61	n/a	n/a	n/a	j	5	0.01000000000000001	0	j	1	0.5906605108175427
0	62	n/a	n/a	n/a	f	5	0.02000000000000001	1	f	1	0.5876413162332028
0	63	n/a	n/a	n/a	f	5	0.01000000000000001	1	f	1	0.6745105853769928
0	64	n/a	n/a	n/a	f	5	1.040834085586084e-17	2	f	1	0.4394929462578148
0	65	n/a	n/a	n/a	j	5	0.01000000000000001	0	j	1	0.5726405663881451
0	66	n/a	n/a	n/a	f	5	0.02000000000000001	1	f	1	0.5965549251995981
0	67	n/a	n/a	n/a	f	5	0.01000000000000001	2	f	1	0.6413969490677118
0	68	n/a	n/a	n/a	f	5	0.02000000000000001	2	f	1	0.5733490367420018
0	69	n/a	n/a	n/a	j	5	0.03000000000000001	1	j	1	0.5537379567977041
0	70	n/a	n/a	n/a	f	5	0.02000000000000001	0	f	1	0.5521838841959834
0	71	n/a	n/a	n/a	f	5	0.03000000000000001	0	f	1	6.310234927106649
1	0	f	1	11.03936128760688	f	11	0.1	2	f	1	0.9221144737675786
1	1	n/a	n/a	n/a	f	11	0.11	1	f	1	0.8716890783980489
1	2	n/a	n/a	n/a	j	11	0.1	1	f	0	0.8685239132028073
1	3	n/a	n/a	n/a	f	11	0.11	0	f	1	0.922619953751564
1	4	n/a	n/a	n/a	f	11	0.12	1	f	1	0.905866417568177
1	5	n/a	n/a	n/a	f	11	0.11	1	f	1	0.9338083646725863
1	6	n/a	n/a	n/a	f	11	0.1	1	j	0	1.056793928844854
1	7	n/a	n/a	n/a	f	11	0.09000000000000001	1	f	1	1.070799114415422
1	8	n/a	n/a	n/a	j	11	0.08000000000000002	1	f	0	0.9888526434078813
1	9	n/a	n/a	n/a	f	11	0.09000000000000001	1	j	0	0.06659676041454077
1	10	n/a	n/a	n/a	f	11	0.08000000000000002	0	f	1	0.9538325525354594
1	11	n/a	n/a	n/a	f	11	0.09000000000000001	1	f	1	0.9510383007582277
1	12	n/a	n/a	n/a	f	11	0.08000000000000002	1	f	1	0.9895710917189717
1	13	n/a	n/a	n/a	f	11	0.07000000000000002	1	j	0	0.9383802064694464
1	14	n/a	n/a	n/a	j	11	0.06000000000000002	1	f	0	1.03837655717507
1	15	n/a	n/a	n/a	f	11	0.05000000000000002	2	f	1	2.059066450223327
1	16	n/a	n/a	n/a	f	11	0.06000000000000002	2	f	1	0.88068479555659
1	17	n/a	n/a	n/a	f	11	0.07000000000000002	0	f	1	0.9724905474577099
1	18	n/a	n/a	n/a	f	11	0.08000000000000002	1	f	1	1.114077657461166
1	19	n/a	n/a	n/a	f	11	0.07000000000000002	2	f	1	1.168052246095613
1	20	n/a	n/a	n/a	j	11	0.08000000000000002	2	j	1	0.9419604749418795
1	21	n/a	n/a	n/a	f	11	0.09000000000000001	1	f	1	0.9769611794035882
1	22	n/a	n/a	n/a	f	11	0.08000000000000002	1	f	1	0.9330890607088804
1	23	n/a	n/a	n/a	f	11	0.07000000000000002	1	f	1	0.9410279174335301
1	24	n/a	n/a	n/a	f	11	0.06000000000000002	1	f	1	1.044968892820179
1	25	n/a	n/a	n/a	f	11	0.05000000000000002	2	f	1	0.9936930479016155
1	26	n/a	n/a	n/a	j	11	0.06000000000000002	1	j	1	0.9845969760790467
1	27	n/a	n/a	n/a	f	11	0.05000000000000002	1	f	1	0.957815665518865
1	28	n/a	n/a	n/a	f	11	0.04000000000000001	1	f	1	1.002460971474648
1	29	n/a	n/a	n/a	f	11	0.03000000000000001	1	f	1	0.9444915808271617
1	30	n/a	n/a	n/a	f	11	0.02000000000000001	0	f	1	1.030481035355479
1	31	n/a	n/a	n/a	f	11	0.03000000000000001	0	j	0	1.003577702911571
1	32	n/a	n/a	n/a	j	11	0.04000000000000001	0	f	0	0.9919060496613383
1	33	n/a	n/a	n/a	f	11	0.03000000000000001	1	f	1	1.022176682483405
1	34	n/a	n/a	n/a	f	11	0.02000000000000001	2	f	1	1.038236288586631
1	35	n/a	n/a	n/a	f	11	0.03000000000000001	2	f	1	0.9483253019861877
1	36	n/a	n/a	n/a	f	11	0.04000000000000001	2	j	0	1.05909667070955
1	37	n/a	n/a	n/a	f	11	0.03000000000000001	2	f	1	0.9860099249053746
1	38	n/a	n/a	n/a	j	11	0.04000000000000001	1	j	1	0.9669413878582418
1	39	n/a	n/a	n/a	f	11	0.03000000000000001	1	f	1	1.054881487507373
1	40	n/a	n/a	n/a	f	11	0.02000000000000001	2	f	1	0.9348803355824202
1	41	n/a	n/a	n/a	f	11	0.03000000000000001	0	f	1	1.030805477872491
1	42	n/a	n/a	n/a	f	11	0.04000000000000001	2	f	1	1.027742378180847
1	43	n/a	n/a	n/a	f	11	0.05000000000000002	1	f	1	1.017678396310657
1	44	n/a	n/a	n/a	j	11	0.04000000000000001	1	f	0	1.190265421289951
1	45	n/a	n/a	n/a	f	11	0.03000000000000001	2	f	1	0.9305288752075285
1	46	n/a	n/a	n/a	f	11	0.04000000000000001	0	f	1	0.91375851794146
1	47	n/a	n/a	n/a	f	11	0.05000000000000002	0	f	1	0.9201755181420594
1	48	n/a	n/a	n/a	f	11	0.06000000000000002	0	f	1	0.9381230475846678
1	49	n/a	n/a	n/a	f	11	0.07000000000000002	1	f	1	0.9556936763692647
1	50	n/a	n/a	n/a	j	11	0.06000000000000002	1	j	1	0.9598774989135563
1	51	n/a	n/a	n/a	f	11	0.05000000000000002	1	f	1	0.964371508685872
1	52	n/a	n/a	n/a	f	11	0.04000000000000001	1	f	1	1.008159237913787
1	53	n/a	n/a	n/a	f	11	0.03000000000000001	1	f	1	1.000074695795774
1	54	n/a	n/a	n/a	f	11	0.02000000000000001	1	f	1	0.9660276465583593
1	55	n/a	n/a	n/a	f	11	0.01000000000000001	0	f	1	0.8611287395469844
1	56	n/a	n/a	n/a	j	11	0.02000000000000001	0	j	1	1.042885391972959
1	57	n/a	n/a	n/a	f	11	0.03000000000000001	2	f	1	1.065792782232165
1	58	n/a	n/a	n/a	f	11	0.04000000000000001	2	f	1	0.9827991442289203
1	59	n/a	n/a	n/a	f	11	0.05000000000000002	1	f	1	1.026683521689847
1	60	n/a	n/a	n/a	f	11	0.04000000000000001	2	f	1	0.99096864531748
1	61	n/a	n/a	n/a	f	11	0.05000000000000002	1	f	1	1.020765159279108
1	62	n/a	n/a	n/a	j	11	0.04000000000000001	1	f	0	0.8725708883721381
1	63	n/a	n/a	n/a	f	11	0.03000000000000001	0	f	1	0.9895542711019516
1	64	n/a	n/a	n/a	f	11	0.04000000000000001	1	f	1	0.9566048516426235
1	65	n/a	n/a	n/a	f	11	0.03000000000000001	0	f	1	0.9713869309052825
1	66	n/a	n/a	n/a	f	11	0.04000000000000001	1	f	1	1.032909220550209
1	67	n/a	n/a	n/a	f	11	0.03000000000000001	1	j	0	0.910276893293485
1	68	n/a	n/a	n/a	j	11	0.04000000000000001	1	f	0	1.901419163914397
1	69	n/a	n/a	n/a	f	11	0.05000000000000002	1	j	0	0.860181927215308
1	70	n/a	n/a	n/a	f	11	0.06000000000000002	0	f	1	1.003014632966369
1	71	n/a	n/a	n/a	f	11	0.07000000000000002	1	f	1	0.9380261139012873
2	0	f	1	0.9477037871256471	f	3	0.1	2	f	1	0.4159452246967703
2	1	n/a	n/a	n/a	f	3	0.11	1	f	1	0.3578449736814946
2	2	n/a	n/a	n/a	j	3	0.1	1	j	1	0.4259524717926979
2	3	n/a	n/a	n/a	f	3	0.09000000000000001	1	f	1	0.4088844717480242
2	4	n/a	n/a	n/a	f	3	0.08000000000000002	1	f	1	0.3847585699986666
2	5	n/a	n/a	n/a	f	3	0.07000000000000002	1	f	1	0.4008218823000789
2	6	n/a	n/a	n/a	f	3	0.06000000000000002	1	f	1	0.462780088186264
2	7	n/a	n/a	n/a	f	3	0.05000000000000002	2	f	1	0.3654060745611787
2	8	n/a	n/a	n/a	j	3	0.06000000000000002	1	j	1	0.4242806534748524
2	9	n/a	n/a	n/a	f	3	0.05000000000000002	1	f	1	0.4382499163039029
2	10	n/a	n/a	n/a	f	3	0.04000000000000001	2	f	1	0.3738737890962511
2	11	n/a	n/a	n/a	f	3	0.05000000000000002	1	f	1	0.4272816015873104
2	12	n/a	n/a	n/a	f	3	0.04000000000000001	2	f	1	0.4105987697839737
2	13	n/a	n/a	n/a	f	3	0.05000000000000002	1	f	1	0.3216257579624653
2	14	n/a	n/a	n/a	j	3	0.04000000000000001	0	j	1	0.3899510712362826
2	15	n/a	n/a	n/a	f	3	0.05000000000000002	1	f	1	0.419813442742452
2	16	n/a	n/a	n/a	f	3	0.04000000000000001	1	f	1	0.3795640727039427
2	17	n/a	n/a	n/a	f	3	0.03000000000000001	1	f	1	0.3924821771215647
2	18	n/a	n/a	n/a	f	3	0.02000000000000001	1	j	0	0.454113089479506
2	19	n/a	n/a	n/a	f	3	0.01000000000000001	1	j	0	0.2914817091077566
2	20	n/a	n/a	n/a	j	3	0.02000000000000001	1	f	0	0.4275225100573152
2	21	n/a	n/a	n/a	f	3	0.03000000000000001	2	f	1	0.4584283425938338
2	22	n/a	n/a	n/a	f	3	0.04000000000000001	2	f	1	0.3613887496758252
2	23	n/a	n/a	n/a	f	3	0.05000000000000002	1	f	1	0.4303732113912702
2	24	n/a	n/a	n/a	f	3	0.04000000000000001	1	j	0	0.5003672069869936
2	25	n/a	n/a	n/a	f	3	0.05000000000000002	2	f	1	0.2193286612164229
2	26	n/a	n/a	n/a	j	3	0.06000000000000002	2	f	0	0.7542743412777781
2	27	n/a	n/a	n/a	f	3	0.07000000000000002	2	j	0	0.09722861321642995
2	28	n/a	n/a	n/a	f	3	0.08000000000000002	0	f	1	0.4313610780518502
2	29	n/a	n/a	n/a	f	3	0.09000000000000001	1	f	1	0.4444117532111704
2	30	n/a	n/a	n/a	f	3	0.08000000000000002	1	f	1	0.5688136874232441
2	31	n/a	n/a	n/a	f	3	0.07000000000000002	2	f	1	0.9921974204480648
2	32	n/a	n/a	n/a	j	3	0.08000000000000002	2	j	1	0.5510876798070967
2	33	n/a	n/a	n/a	f	3	0.09000000000000001	2	f	1	0.5421181914862245
2	34	n/a	n/a	n/a	f	3	0.1	2	f	1	0.418037848547101
2	35	n/a	n/a	n/a	f	3	0.11	1	f	1	0.4240334727801383
2	36	n/a	n/a	n/a	f	3	0.1	1	f	1	0.4770250413566828
2	37	n/a	n/a	n/a	f	3	0.09000000000000001	2	f	1	0.4107561444398016
2	38	n/a	n/a	n/a	j	3	0.1	1	j	1	0.4088505450636148
2	39	n/a	n/a	n/a	f	3	0.09000000000000001	1	f	1	0.5708906310610473
2	40	n/a	n/a	n/a	f	3	0.08000000000000002	2	f	1	0.3699074969626963
2	41	n/a	n/a	n/a	f	3	0.09000000000000001	1	f	1	0.4004937338177115
2	42	n/a	n/a	n/a	f	3	0.08000000000000002	1	f	1	0.4540600611362606
2	43	n/a	n/a	n/a	f	3	0.07000000000000002	2	f	1	0.3658149060793221
2	44	n/a	n/a	n/a	j	3	0.08000000000000002	1	j	1	0.4126261062920094
2	45	n/a	n/a	n/a	f	3	0.07000000000000002	1	f	1	0.4045218923129141
2	46	n/a	n/a	n/a	f	3	0.06000000000000002	1	f	1	0.4026944101788104
2	47	n/a	n/a	n/a	f	3	0.05000000000000002	1	f	1	0.4396993578411639
2	48	n/a	n/a	n/a	f	3	0.04000000000000001	2	f	1	0.4604679381009191
2	49	n/a	n/a	n/a	f	3	0.05000000000000002	2	f	1	0.4426601070445031
2	50	n/a	n/a	n/a	j	3	0.06000000000000002	1	j	1	0.3602637504227459
2	51	n/a	n/a	n/a	f	3	0.05000000000000002	1	f	1	0.4625782382208854
2	52	n/a	n/a	n/a	f	3	0.04000000000000001	2	f	1	0.4494146639481187
2	53	n/a	n/a	n/a	f	3	0.05000000000000002	2	f	1	0.3963064902927727
2	54	n/a	n/a	n/a	f	3	0.06000000000000002	1	f	1	0.4664225082378834
2	55	n/a	n/a	n/a	f	3	0.05000000000000002	2	f	1	0.3358293720521033
2	56	n/a	n/a	n/a	j	3	0.06000000000000002	1	j	1	0.4396169641986489
2	57	n/a	n/a	n/a	f	3	0.05000000000000002	2	f	1	0.4565027861390263
2	58	n/a	n/a	n/a	f	3	0.06000000000000002	2	f	1	0.4224577327258885
2	59	n/a	n/a	n/a	f	3	0.07000000000000002	1	f	1	0.4772468479350209
2	60	n/a	n/a	n/a	f	3	0.06000000000000002	2	f	1	0.5101155845914036
2	61	n/a	n/a	n/a	f	3	0.07000000000000002	2	f	1	0.3942808643914759
2	62	n/a	n/a	n/a	j	3	0.08000000000000002	1	j	1	0.4001701469533145
2	63	n/a	n/a	n/a	f	3	0.07000000000000002	1	f	1	0.4020158753264695
2	64	n/a	n/a	n/a	f	3	0.06000000000000002	1	f	1	0.3762897150591016
2	65	n/a	n/a	n/a	f	3	0.05000000000000002	1	f	1	0.3593160826712847
2	66	n/a	n/a	n/a	f	3	0.04000000000000001	1	f	1	0.4923952789977193
2	67	n/a	n/a	n/a	f	3	0.03000000000000001	2	f	1	0.4171933862380683
2	68	n/a	n/a	n/a	j	3	0.04000000000000001	1	j	1	0.3898142240941525
2	69	n/a	n/a	n/a	f	3	0.03000000000000001	1	f	1	0.418197788996622
2	70	n/a	n/a	n/a	f	3	0.02000000000000001	2	f	1	0.3852172936312854
2	71	n/a	n/a	n/a	f	3	0.03000000000000001	1	f	1	0.412243218626827
3	0	f	1	1.877670732792467	f	7	0.1	0	f	1	0.5539150030817837
3	1	n/a	n/a	n/a	f	7	0.11	1	f	1	0.5728854660410434
3	2	n/a	n/a	n/a	j	7	0.1	1	j	1	0.473465584916994
3	3	n/a	n/a	n/a	f	7	0.09000000000000001	0	f	1	0.5973797154147178
3	4	n/a	n/a	n/a	f	7	0.1	1	f	1	0.547933348454535
3	5	n/a	n/a	n/a	f	7	0.09000000000000001	1	f	1	0.5378311632666737
3	6	n/a	n/a	n/a	f	7	0.08000000000000002	1	f	1	0.6066807731986046
3	7	n/a	n/a	n/a	f	7	0.07000000000000002	1	f	1	0.5625765845179558
3	8	n/a	n/a	n/a	j	7	0.06000000000000002	1	j	1	0.5136522334069014
3	9	n/a	n/a	n/a	f	7	0.05000000000000002	0	f	1	0.583210883429274
3	10	n/a	n/a	n/a	f	7	0.06000000000000002	1	f	1	0.5493565609212965
3	11	n/a	n/a	n/a	f	7	0.05000000000000002	1	f	1	0.5375517667271197
3	12	n/a	n/a	n/a	f	7	0.04000000000000001	1	j	0	0.5845354518387467
3	13	n/a	n/a	n/a	f	7	0.05000000000000002	1	f	1	0.6065057227388024
3	14	n/a	n/a	n/a	j	7	0.04000000000000001	1	j	1	0.5664496496319771
3	15	n/a	n/a	n/a	f	7	0.03000000000000001	1	f	1	0.581445267656818
3	16	n/a	n/a	n/a	f	7	0.02000000000000001	1	f	1	0.5299481861293316
3	17	n/a	n/a	n/a	f	7	0.01000000000000001	0	f	1	0.5033661597408354
3	18	n/a	n/a	n/a	f	7	0.02000000000000001	0	f	1	0.5813223901204765
3	19	n/a	n/a	n/a	f	7	0.03000000000000001	1	f	1	0.5804599667899311
3	20	n/a	n/a	n/a	j	7	0.02000000000000001	1	j	1	0.5632006656378508
3	21	n/a	n/a	n/a	f	7	0.01000000000000001	0	f	1	0.5526443184353411
3	22	n/a	n/a	n/a	f	7	0.02000000000000001	0	f	1	0.5655883667059243
3	23	n/a	n/a	n/a	f	7	0.03000000000000001	1	f	1	0.5454199188388884
3	24	n/a	n/a	n/a	f	7	0.02000000000000001	0	f	1	0.5651530211325735
3	25	n/a	n/a	n/a	f	7	0.03000000000000001	1	f	1	0.5803048731759191
3	26	n/a	n/a	n/a	j	7	0.02000000000000001	1	j	1	0.5512918105814606
3	27	n/a	n/a	n/a	f	7	0.01000000000000001	0	f	1	0.5729476176202297
3	28	n/a	n/a	n/a	f	7	0.02000000000000001	1	f	1	0.6089598517864943
3	29	n/a	n/a	n/a	f	7	0.01000000000000001	2	f	1	0.6000302776228637
3	30	n/a	n/a	n/a	f	7	0.02000000000000001	1	f	1	0.5489257769659162
3	31	n/a	n/a	n/a	f	7	0.01000000000000001	0	f	1	0.5698796713259071
3	32	n/a	n/a	n/a	j	7	0.02000000000000001	1	j	1	0.5424999385140836
3	33	n/a	n/a	n/a	f	7	0.01000000000000001	0	f	1	0.56086171627976
3	34	n/a	n/a	n/a	f	7	0.02000000000000001	0	f	1	0.6058209156617522
3	35	n/a	n/a	n/a	f	7	0.03000000000000001	1	f	1	0.5799393767956644
3	36	n/a	n/a	n/a	f	7	0.02000000000000001	1	f	1	0.5927397352643311
3	37	n/a	n/a	n/a	f	7	0.01000000000000001	1	f	1	0.6477332664653659
3	38	n/a	n/a	n/a	j	7	1.040834085586084e-17	2	j	1	0.5666150068864226
3	39	n/a	n/a	n/a	f	7	0.01000000000000001	0	f	1	0.601157842669636
3	40	n/a	n/a	n/a	f	7	0.02000000000000001	1	f	1	0.5986196093726903
3	41	n/a	n/a	n/a	f	7	0.01000000000000001	2	f	1	0.5246809888631105
3	42	n/a	n/a	n/a	f	7	0.02000000000000001	0	f	1	0.5681092087179422
3	43	n/a	n/a	n/a	f	7	0.03000000000000001	1	f	1	0.5566245804075152
3	44	n/a	n/a	n/a	j	7	0.02000000000000001	0	j	1	0.5284670987166464
3	45	n/a	n/a	n/a	f	7	0.03000000000000001	0	f	1	0.5494509285781533
3	46	n/a	n/a	n/a	f	7	0.04000000000000001	1	f	1	0.5311507321894169
3	47	n/a	n/a	n/a	f	7	0.03000000000000001	0	f	1	0.585365658858791
3	48	n/a	n/a	n/a	f	7	0.04000000000000001	1	f	1	0.6383483894169331
3	49	n/a	n/a	n/a	f	7	0.03000000000000001	2	f	1	0.5972622546833009
3	50	n/a	n/a	n/a	j	7	0.04000000000000001	1	j	1	0.5884515666402876
3	51	n/a	n/a	n/a	f	7	0.03000000000000001	1	f	1	0.4832498850300908
3	52	n/a	n/a	n/a	f	7	0.02000000000000001	0	f	1	0.5768118444830179
3	53	n/a	n/a	n/a	f	7	0.03000000000000001	1	f	1	0.516349836718291
3	54	n/a	n/a	n/a	f	7	0.02000000000000001	0	f	1	0.5777743377257138
3	55	n/a	n/a	n/a	f	7	0.03000000000000001	1	f	1	0.5268739676102996
3	56	n/a	n/a	n/a	j	7	0.02000000000000001	0	j	1	0.5610501666087657
3	57	n/a	n/a	n/a	f	7	0.03000000000000001	1	f	1	0.6081974981352687
3	58	n/a	n/a	n/a	f	7	0.02000000000000001	2	f	1	0.5340359304100275
3	59	n/a	n/a	n/a	f	7	0.03000000000000001	0	f	1	0.5385057067032903
3	60	n/a	n/a	n/a	f	7	0.04000000000000001	0	f	1	0.5829252146650106
3	61	n/a	n/a	n/a	f	7	0.05000000000000002	1	f	1	0.5498469306621701
3	62	n/a	n/a	n/a	j	7	0.04000000000000001	1	j	1	0.5218542360235006
3	63	n/a	n/a	n/a	f	7	0.03000000000000001	0	f	1	0.5598065662197769
3	64	n/a	n/a	n/a	f	7	0.04000000000000001	1	f	1	0.5738542312756181
3	65	n/a	n/a	n/a	f	7	0.03000000000000001	1	f	1	0.5147823642473668
3	66	n/a	n/a	n/a	f	7	0.02000000000000001	0	f	1	0.6157178299035877
3	67	n/a	n/a	n/a	f	7	0.03000000000000001	2	f	1	0.5736922952346504
3	68	n/a	n/a	n/a	j	7	0.04000000000000001	1	j	1	0.5488066056277603
3	69	n/a	n/a	n/a	f	7	0.03000000000000001	0	f	1	0.5786515860818326
3	70	n/a	n/a	n/a	f	7	0.04000000000000001	1	f	1	0.5890907577704638
3	71	n/a	n/a	n/a	f	7	0.03000000000000001	1	f	1	0.5301460446789861
4	0	f	1	0.6417219615541399	f	9	0.1	0	f	1	0.8636649772524834
4	1	n/a	n/a	n/a	j	9	0.11	0	j	1	0.8990077995695174
4	2	n/a	n/a	n/a	f	9	0.12	1	f	1	0.896748963277787
4	3	n/a	n/a	n/a	f	9	0.11	1	f	1	1.032689409563318
4	4	n/a	n/a	n/a	f	9	0.1	1	f	1	0.9576899369712919
4	5	n/a	n/a	n/a	j	9	0.09000000000000001	1	j	1	0.9327190027106553
4	6	n/a	n/a	n/a	f	9	0.08000000000000002	1	f	1	0.9045595254283398
4	7	n/a	n/a	n/a	f	9	0.07000000000000002	0	f	1	0.998480424284935
4	8	n/a	n/a	n/a	f	9	0.08000000000000002	1	f	1	0.9152404605410993
4	9	n/a	n/a	n/a	j	9	0.07000000000000002	1	j	1	0.9283093821723014
4	10	n/a	n/a	n/a	f	9	0.06000000000000002	1	f	1	0.944333921186626
4	11	n/a	n/a	n/a	f	9	0.05000000000000002	1	f	1	0.9118580503854901
4	12	n/a	n/a	n/a	f	9	0.04000000000000001	0	f	1	0.9243955481797457
4	13	n/a	n/a	n/a	j	9	0.05000000000000002	0	j	1	0.8843423258513212
4	14	n/a	n/a	n/a	f	9	0.06000000000000002	0	f	1	1.026061721611768
4	15	n/a	n/a	n/a	f	9	0.07000000000000002	1	f	1	1.1108779956121
4	16	n/a	n/a	n/a	f	9	0.06000000000000002	2	f	1	0.9957400562707335
4	17	n/a	n/a	n/a	j	9	0.07000000000000002	1	j	1	0.9442061968147755
4	18	n/a	n/a	n/a	f	9	0.06000000000000002	1	f	1	0.8781896124128252
4	19	n/a	n/a	n/a	f	9	0.05000000000000002	0	f	1	0.9638842749409378
4	20	n/a	n/a	n/a	f	9	0.06000000000000002	1	f	1	0.962718506809324
4	21	n/a	n/a	n/a	j	9	0.05000000000000002	1	j	1	0.8896374627947807
4	22	n/a	n/a	n/a	f	9	0.04000000000000001	0	f	1	0.9666651270817965
4	23	n/a	n/a	n/a	f	9	0.05000000000000002	1	f	1	0.9316490276250988
4	24	n/a	n/a	n/a	f	9	0.04000000000000001	0	f	1	1.002526259049773
4	25	n/a	n/a	n/a	j	9	0.05000000000000002	1	j	1	0.9855124277528375
4	26	n/a	n/a	n/a	f	9	0.04000000000000001	1	f	1	0.9743784707970917
4	27	n/a	n/a	n/a	f	9	0.03000000000000001	1	f	1	0.9404049769509584
4	28	n/a	n/a	n/a	f	9	0.02000000000000001	0	f	1	0.9702975689433515
4	29	n/a	n/a	n/a	j	9	0.03000000000000001	1	j	1	0.9763045969884843
4	30	n/a	n/a	n/a	f	9	0.02000000000000001	1	f	1	1.079290777212009
4	31	n/a	n/a	n/a	f	9	0.01000000000000001	2	f	1	1.004083752864972
4	32	n/a	n/a	n/a	f	9	0.02000000000000001	1	f	1	0.9960670643486083
4	33	n/a	n/a	n/a	j	9	0.01000000000000001	1	j	1	0.9470235416665673
4	34	n/a	n/a	n/a	f	9	1.040834085586084e-17	0	f	1	0.9370054607279599
4	35	n/a	n/a	n/a	f	9	0.01000000000000001	0	f	1	1.024946130579337
4	36	n/a	n/a	n/a	f	9	0.02000000000000001	2	f	1	1.063925956608728
4	37	n/a	n/a	n/a	j	9	0.03000000000000001	2	j	1	0.9730196907185018
4	38	n/a	n/a	n/a	f	9	0.04000000000000001	1	f	1	1.026001280639321
4	39	n/a	n/a	n/a	f	9	0.03000000000000001	2	f	1	0.9437047084793448
4	40	n/a	n/a	n/a	f	9	0.04000000000000001	1	f	1	0.8517199144698679
4	41	n/a	n/a	n/a	j	9	0.03000000000000001	0	j	1	0.8255883436650038
4	42	n/a	n/a	n/a	f	9	0.04000000000000001	0	f	1	0.9355266541242599
4	43	n/a	n/a	n/a	f	9	0.05000000000000002	1	f	1	0.9736315123736858
4	44	n/a	n/a	n/a	f	9	0.04000000000000001	1	f	1	1.074479167582467
4	45	n/a	n/a	n/a	j	9	0.03000000000000001	2	j	1	0.8964262316003442
4	46	n/a	n/a	n/a	f	9	0.04000000000000001	0	f	1	0.9173544670920819
4	47	n/a	n/a	n/a	f	9	0.05000000000000002	0	f	1	0.9080887613818049
4	48	n/a	n/a	n/a	f	9	0.06000000000000002	0	f	1	1.106153055559844
4	49	n/a	n/a	n/a	j	9	0.07000000000000002	2	j	1	0.9911804737057537
4	50	n/a	n/a	n/a	f	9	0.08000000000000002	1	f	1	0.956039500888437
4	51	n/a	n/a	n/a	f	9	0.07000000000000002	1	f	1	0.9450523697305471
4	52	n/a	n/a	n/a	f	9	0.06000000000000002	1	f	1	0.9110286985523999
4	53	n/a	n/a	n/a	j	9	0.05000000000000002	0	j	1	0.8846362626645714
4	54	n/a	n/a	n/a	f	9	0.06000000000000002	0	f	1	0.963847212260589
4	55	n/a	n/a	n/a	f	9	0.07000000000000002	1	f	1	0.9784744828939438
4	56	n/a	n/a	n/a	f	9	0.06000000000000002	1	f	1	0.983785015065223
4	57	n/a	n/a	n/a	j	9	0.05000000000000002	1	j	1	0.9027471533045173
4	58	n/a	n/a	n/a	f	9	0.04000000000000001	0	f	1	0.930667718173936
4	59	n/a	n/a	n/a	f	9	0.05000000000000002	0	f	1	0.8806300566066056
4	60	n/a	n/a	n/a	f	9	0.06000000000000002	0	f	1	1.102582765510306
4	61	n/a	n/a	n/a	j	9	0.07000000000000002	2	j	1	1.012651822296903
4	62	n/a	n/a	n/a	f	9	0.08000000000000002	1	f	1	0.9549911932554096
4	63	n/a	n/a	n/a	f	9	0.07000000000000002	1	f	1	0.9599798491690308
4	64	n/a	n/a	n/a	f	9	0.06000000000000002	1	f	1	1.004476048517972
4	65	n/a	n/a	n/a	j	9	0.05000000000000002	1	j	1	0.8662536728661507
4	66	n/a	n/a	n/a	f	9	0.04000000000000001	0	f	1	1.010199118638411
4	67	n/a	n/a	n/a	f	9	0.05000000000000002	1	f	1	0.944137773476541
4	68	n/a	n/a	n/a	f	9	0.04000000000000001	1	f	1	1.039145753253251
4	69	n/a	n/a	n/a	j	9	0.03000000000000001	2	j	1	0.8918347181752324
4	70	n/a	n/a	n/a	f	9	0.04000000000000001	0	f	1	1.001996545819566
4	71	n/a	n/a	n/a	f	9	0.05000000000000002	1	f	1	0.984959336463362
5	0	j	1	0.70492576318793	j	4	0.1	2	j	1	0.3922811825759709
5	1	n/a	n/a	n/a	j	4	0.11	1	j	1	0.4210459243040532
5	2	n/a	n/a	n/a	f	4	0.1	1	f	1	0.4171095672063529
5	3	n/a	n/a	n/a	j	4	0.09000000000000001	1	j	1	0.3892645537853241
5	4	n/a	n/a	n/a	j	4	0.08000000000000002	1	j	1	0.419077318161726
5	5	n/a	n/a	n/a	j	4	0.07000000000000002	1	f	0	0.4010103323962539
5	6	n/a	n/a	n/a	j	4	0.06000000000000002	1	j	1	0.4626515083946288
5	7	n/a	n/a	n/a	j	4	0.05000000000000002	2	j	1	0.3557101550977677
5	8	n/a	n/a	n/a	f	4	0.06000000000000002	1	f	1	0.4739650778938085
5	9	n/a	n/a	n/a	j	4	0.05000000000000002	2	j	1	0.4728195513598621
5	10	n/a	n/a	n/a	j	4	0.06000000000000002	2	j	1	0.3978736773133278
5	11	n/a	n/a	n/a	j	4	0.07000000000000002	1	j	1	0.381022637244314
5	12	n/a	n/a	n/a	j	4	0.06000000000000002	1	j	1	0.4344150547403842
5	13	n/a	n/a	n/a	j	4	0.05000000000000002	2	j	1	0.4058421843219548
5	14	n/a	n/a	n/a	f	4	0.06000000000000002	1	f	1	0.3800071161240339
5	15	n/a	n/a	n/a	j	4	0.05000000000000002	1	j	1	0.4417951179202646
5	16	n/a	n/a	n/a	j	4	0.04000000000000001	2	j	1	0.4007115492131561
5	17	n/a	n/a	n/a	j	4	0.05000000000000002	1	j	1	0.3997151295188814
5	18	n/a	n/a	n/a	j	4	0.04000000000000001	1	j	1	0.4547169285360724
5	19	n/a	n/a	n/a	j	4	0.03000000000000001	2	j	1	0.3478685170412064
5	20	n/a	n/a	n/a	f	4	0.04000000000000001	1	f	1	0.4006573802325875
5	21	n/a	n/a	n/a	j	4	0.03000000000000001	1	j	1	0.4062684066593647
5	22	n/a	n/a	n/a	j	4	0.02000000000000001	2	j	1	0.4047896000556648
5	23	n/a	n/a	n/a	j	4	0.03000000000000001	1	j	1	0.3935658370610327
5	24	n/a	n/a	n/a	j	4	0.02000000000000001	1	j	1	0.4231949977111071
5	25	n/a	n/a	n/a	j	4	0.01000000000000001	2	j	1	0.4285822215024382
5	26	n/a	n/a	n/a	f	4	0.02000000000000001	2	f	1	0.4574866616167128
5	27	n/a	n/a	n/a	j	4	0.03000000000000001	2	j	1	0.3845142405480146
5	28	n/a	n/a	n/a	j	4	0.04000000000000001	1	j	1	0.4304909568745643
5	29	n/a	n/a	n/a	j	4	0.03000000000000001	2	j	1	0.5326246921904385
5	30	n/a	n/a	n/a	j	4	0.04000000000000001	2	j	1	0.4274843067396432
5	31	n/a	n/a	n/a	j	4	0.05000000000000002	1	j	1	0.4103561509400606
5	32	n/a	n/a	n/a	f	4	0.04000000000000001	1	f	1	0.3533389896620065
5	33	n/a	n/a	n/a	j	4	0.03000000000000001	0	j	1	0.4563245996832848
5	34	n/a	n/a	n/a	j	4	0.04000000000000001	2	j	1	0.3833729906473309
5	35	n/a	n/a	n/a	j	4	0.05000000000000002	1	j	1	0.3724807971157134
5	36	n/a	n/a	n/a	j	4	0.04000000000000001	1	j	1	0.4010693479795009
5	37	n/a	n/a	n/a	j	4	0.03000000000000001	1	j	1	0.3581907982006669
5	38	n/a	n/a	n/a	f	4	0.02000000000000001	0	f	1	0.3818012417759746
5	39	n/a	n/a	n/a	j	4	0.03000000000000001	1	j	1	0.4021986236330122
5	40	n/a	n/a	n/a	j	4	0.02000000000000001	1	j	1	0.3760864397045225
5	41	n/a	n/a	n/a	j	4	0.01000000000000001	1	j	1	0.3812250574119389
5	42	n/a	n/a	n/a	j	4	1.040834085586084e-17	2	j	1	0.3721991197671741
5	43	n/a	n/a	n/a	j	4	0.01000000000000001	0	j	1	0.4431253881193697
5	44	n/a	n/a	n/a	f	4	0.02000000000000001	2	f	1	0.4090726368594915
5	45	n/a	n/a	n/a	j	4	0.03000000000000001	1	j	1	0.3820732259191573
5	46	n/a	n/a	n/a	j	4	0.02000000000000001	1	j	1	0.3980792334768921
5	47	n/a	n/a	n/a	j	4	0.01000000000000001	2	j	1	0.4100043391808867
5	48	n/a	n/a	n/a	j	4	0.02000000000000001	2	j	1	0.4065589220263064
5	49	n/a	n/a	n/a	j	4	0.03000000000000001	1	j	1	0.3691653851419687
5	50	n/a	n/a	n/a	f	4	0.02000000000000001	1	f	1	0.3909369425382465
5	51	n/a	n/a	n/a	j	4	0.01000000000000001	1	j	1	0.3409018467646092
5	52	n/a	n/a	n/a	j	4	1.040834085586084e-17	0	j	1	0.4658856673631817
5	53	n/a	n/a	n/a	j	4	0.01000000000000001	2	j	1	0.4009191009681672
5	54	n/a	n/a	n/a	j	4	0.02000000000000001	1	j	1	0.3824971674475819
5	55	n/a	n/a	n/a	j	4	0.01000000000000001	1	j	1	0.4040112807415426
5	56	n/a	n/a	n/a	f	4	1.040834085586084e-17	2	f	1	0.4107259239535779
5	57	n/a	n/a	n/a	j	4	0.01000000000000001	2	j	1	0.4573352744337171
5	58	n/a	n/a	n/a	j	4	0.02000000000000001	2	j	1	0.3826904646120965
5	59	n/a	n/a	n/a	j	4	0.03000000000000001	1	j	1	0.3888910748064518
5	60	n/a	n/a	n/a	j	4	0.02000000000000001	1	j	1	0.4267065576277673
5	61	n/a	n/a	n/a	j	4	0.01000000000000001	2	j	1	0.4156766617670655
5	62	n/a	n/a	n/a	f	4	0.02000000000000001	2	f	1	0.4066735317464918
5	63	n/a	n/a	n/a	j	4	0.03000000000000001	1	j	1	0.4273987771011889
5	64	n/a	n/a	n/a	j	4	0.02000000000000001	2	j	1	0.416184707544744
5	65	n/a	n/a	n/a	j	4	0.03000000000000001	2	j	1	0.38074324070476
5	66	n/a	n/a	n/a	j	4	0.04000000000000001	1	j	1	0.5225581442937255
5	67	n/a	n/a	n/a	j	4	0.03000000000000001	2	j	1	0.4020517978351563
5	68	n/a	n/a	n/a	f	4	0.04000000000000001	1	f	1	0.4234530120156705
5	69	n/a	n/a	n/a	j	4	0.03000000000000001	2	j	1	0.45451564877294
5	70	n/a	n/a	n/a	j	4	0.04000000000000001	2	j	1	0.3884862344712019
5	71	n/a	n/a	n/a	j	4	0.05000000000000002	1	j	1	0.451403226936236
6	0	j	1	0.1071403522510082	j	8	0.1	0	j	1	0.5246747168712318
6	1	n/a	n/a	n/a	j	8	0.11	1	j	1	0.5762801356613636
6	2	n/a	n/a	n/a	f	8	0.1	1	f	1	0.5819635768420994
6	3	n/a	n/a	n/a	j	8	0.09000000000000001	1	j	1	0.5382796234916896
6	4	n/a	n/a	n/a	j	8	0.08000000000000002	1	j	1	0.5922314042691141
6	5	n/a	n/a	n/a	j	8	0.07000000000000002	1	j	1	0.5502540513407439
6	6	n/a	n/a	n/a	j	8	0.06000000000000002	1	j	1	0.5488653359934688
6	7	n/a	n/a	n/a	j	8	0.05000000000000002	1	j	1	0.5701801651157439
6	8	n/a	n/a	n/a	f	8	0.04000000000000001	1	f	1	0.5381404953077435
6	9	n/a	n/a	n/a	j	8	0.03000000000000001	0	j	1	0.5530847958289087
6	10	n/a	n/a	n/a	j	8	0.04000000000000001	1	j	1	0.5200079372152686
6	11	n/a	n/a	n/a	j	8	0.03000000000000001	0	j	1	0.5759651015978307
6	12	n/a	n/a	n/a	j	8	0.04000000000000001	1	j	1	0.5979598911944777
6	13	n/a	n/a	n/a	j	8	0.03000000000000001	1	j	1	0.5579220643267035
6	14	n/a	n/a	n/a	f	8	0.02000000000000001	0	f	1	0.5331720816902816
6	15	n/a	n/a	n/a	j	8	0.03000000000000001	0	j	1	0.6029342922847718
6	16	n/a	n/a	n/a	j	8	0.04000000000000001	1	j	1	0.549060913734138
6	17	n/a	n/a	n/a	j	8	0.03000000000000001	0	j	1	0.5868726903572679
6	18	n/a	n/a	n/a	j	8	0.04000000000000001	1	j	1	0.5458124997094274
6	19	n/a	n/a	n/a	j	8	0.03000000000000001	0	j	1	0.6003775275312364
6	20	n/a	n/a	n/a	f	8	0.04000000000000001	1	f	1	0.6227070230524987
6	21	n/a	n/a	n/a	j	8	0.03000000000000001	2	j	1	0.5328832766972482
6	22	n/a	n/a	n/a	j	8	0.04000000000000001	0	j	1	0.586314182030037
6	23	n/a	n/a	n/a	j	8	0.05000000000000002	1	j	1	0.5772335056681186
6	24	n/a	n/a	n/a	j	8	0.04000000000000001	1	j	1	0.5905898062046617
6	25	n/a	n/a	n/a	j	8	0.03000000000000001	1	j	1	0.5483598560094833
6	26	n/a	n/a	n/a	f	8	0.02000000000000001	0	f	1	0.5304767589550465
6	27	n/a	n/a	n/a	j	8	0.03000000000000001	0	j	1	0.5034599571954459
6	28	n/a	n/a	n/a	j	8	0.04000000000000001	0	j	1	0.5514671460259706
6	29	n/a	n/a	n/a	j	8	0.05000000000000002	1	j	1	0.5190753797069192
6	30	n/a	n/a	n/a	j	8	0.04000000000000001	0	j	1	0.557420005556196
6	31	n/a	n/a	n/a	j	8	0.05000000000000002	1	j	1	0.6023717925418168
6	32	n/a	n/a	n/a	f	8	0.04000000000000001	1	f	1	0.4889621210750192
6	33	n/a	n/a	n/a	j	8	0.03000000000000001	0	j	1	0.5653220843523741
6	34	n/a	n/a	n/a	j	8	0.04000000000000001	1	j	1	1.292449333705008
6	35	n/a	n/a	n/a	j	8	0.03000000000000001	1	f	0	0.9229714805260301
6	36	n/a	n/a	n/a	j	8	0.04000000000000001	2	j	1	0.5361730298027396
6	37	n/a	n/a	n/a	j	8	0.05000000000000002	1	j	1	0.5511518269777298
6	38	n/a	n/a	n/a	f	8	0.04000000000000001	1	j	0	0.5981283846776932
6	39	n/a	n/a	n/a	j	8	0.03000000000000001	1	j	1	0.5241809259168804
6	40	n/a	n/a	n/a	j	8	0.02000000000000001	0	j	1	0.5380931692197919
6	41	n/a	n/a	n/a	j	8	0.03000000000000001	0	j	1	0.4809337437618524
6	42	n/a	n/a	n/a	j	8	0.04000000000000001	0	j	1	0.5919768111780286
6	43	n/a	n/a	n/a	j	8	0.05000000000000002	1	j	1	0.5089692031033337
6	44	n/a	n/a	n/a	f	8	0.04000000000000001	0	f	1	0.5240341001190245
6	45	n/a	n/a	n/a	j	8	0.05000000000000002	0	j	1	0.5298675033263862
6	46	n/a	n/a	n/a	j	8	0.06000000000000002	1	j	1	0.4944887582678348
6	47	n/a	n/a	n/a	j	8	0.05000000000000002	0	j	1	0.5308471021708101
6	48	n/a	n/a	n/a	j	8	0.06000000000000002	1	j	1	0.5354497344233096
6	49	n/a	n/a	n/a	j	8	0.05000000000000002	1	j	1	0.5809132736176252
6	50	n/a	n/a	n/a	f	8	0.04000000000000001	1	f	1	0.528676075860858
6	51	n/a	n/a	n/a	j	8	0.03000000000000001	0	j	1	0.5497425843495876
6	52	n/a	n/a	n/a	j	8	0.04000000000000001	1	j	1	0.5546662379056215
6	53	n/a	n/a	n/a	j	8	0.03000000000000001	1	j	1	0.5036258844193071
6	54	n/a	n/a	n/a	j	8	0.02000000000000001	0	j	1	0.5477742634247988
6	55	n/a	n/a	n/a	j	8	0.03000000000000001	0	j	1	0.585620537167415
6	56	n/a	n/a	n/a	f	8	0.04000000000000001	1	f	1	0.5605743369087577
6	57	n/a	n/a	n/a	j	8	0.03000000000000001	1	j	1	0.5658640568144619
6	58	n/a	n/a	n/a	j	8	0.02000000000000001	1	j	1	0.5246453515719622
6	59	n/a	n/a	n/a	j	8	0.01000000000000001	0	j	1	0.5130375607404858
6	60	n/a	n/a	n/a	j	8	0.02000000000000001	0	j	1	0.5260158206801862
6	61	n/a	n/a	n/a	j	8	0.03000000000000001	0	j	1	0.5795735951978713
6	62	n/a	n/a	n/a	f	8	0.04000000000000001	1	f	1	0.4893153584562242
6	63	n/a	n/a	n/a	j	8	0.03000000000000001	0	j	1	0.5196738014928997
6	64	n/a	n/a	n/a	j	8	0.04000000000000001	0	j	1	1.093220126349479
6	65	n/a	n/a	n/a	j	8	0.05000000000000002	2	j	1	0.5629455023445189
6	66	n/a	n/a	n/a	j	8	0.06000000000000002	1	j	1	0.5521613613236696
6	67	n/a	n/a	n/a	j	8	0.05000000000000002	1	j	1	0.5681328719947487
6	68	n/a	n/a	n/a	f	8	0.04000000000000001	1	f	1	0.5351392619777471
6	69	n/a	n/a	n/a	j	8	0.03000000000000001	0	j	1	0.5492733120918274
6	70	n/a	n/a	n/a	j	8	0.04000000000000001	1	j	1	0.5372472815215588
6	71	n/a	n/a	n/a	j	8	0.03000000000000001	0	j	1	0.502024770481512
7	0	j	1	0.4212052945513278	j	12	0.1	0	j	1	0.9243881355505437
7	1	n/a	n/a	n/a	j	12	0.11	1	j	1	1.049336318857968
7	2	n/a	n/a	n/a	f	12	0.1	1	f	1	1.492488506250083
7	3	n/a	n/a	n/a	j	12	0.09000000000000001	2	j	1	0.76316685276106
7	4	n/a	n/a	n/a	j	12	0.1	0	j	1	0.9448602134361863
7	5	n/a	n/a	n/a	j	12	0.11	1	j	1	0.9757897087838501
7	6	n/a	n/a	n/a	j	12	0.1	1	j	1	0.9652789775282145
7	7	n/a	n/a	n/a	j	12	0.09000000000000001	1	j	1	1.021179407602176
7	8	n/a	n/a	n/a	f	12	0.08000000000000002	1	f	1	0.9388691503554583
7	9	n/a	n/a	n/a	j	12	0.07000000000000002	1	j	1	0.9681992430705577
7	10	n/a	n/a	n/a	j	12	0.06000000000000002	1	j	1	0.9340173418167979
7	11	n/a	n/a	n/a	j	12	0.05000000000000002	1	j	1	0.9799846501555294
7	12	n/a	n/a	n/a	j	12	0.04000000000000001	1	j	1	1.010666395304725
7	13	n/a	n/a	n/a	j	12	0.03000000000000001	1	j	1	0.9606780556496233
7	14	n/a	n/a	n/a	f	12	0.02000000000000001	0	f	1	0.9586475833784789
7	15	n/a	n/a	n/a	j	12	0.03000000000000001	1	j	1	0.958597406046465
7	16	n/a	n/a	n/a	j	12	0.02000000000000001	0	j	1	1.012688599759713
7	17	n/a	n/a	n/a	j	12	0.03000000000000001	2	j	1	0.9726020211819559
7	18	n/a	n/a	n/a	j	12	0.04000000000000001	1	j	1	0.9391650829929858
7	19	n/a	n/a	n/a	j	12	0.03000000000000001	0	j	1	1.006316360319033
7	20	n/a	n/a	n/a	f	12	0.04000000000000001	1	f	1	0.9252853409852833
7	21	n/a	n/a	n/a	j	12	0.03000000000000001	0	j	1	0.9880073259118944
7	22	n/a	n/a	n/a	j	12	0.04000000000000001	1	j	1	1.073727362323552
7	23	n/a	n/a	n/a	j	12	0.03000000000000001	2	j	1	0.9431236775126308
7	24	n/a	n/a	n/a	j	12	0.04000000000000001	2	f	0	0.9492860846221447
7	25	n/a	n/a	n/a	j	12	0.03000000000000001	0	j	1	0.9475854709744453
7	26	n/a	n/a	n/a	f	12	0.04000000000000001	1	f	1	0.920592617476359
7	27	n/a	n/a	n/a	j	12	0.03000000000000001	0	j	1	0.8848566438537091
7	28	n/a	n/a	n/a	j	12	0.04000000000000001	0	j	1	0.9868811862543225
7	29	n/a	n/a	n/a	j	12	0.05000000000000002	1	j	1	0.9888686088379472
7	30	n/a	n/a	n/a	j	12	0.04000000000000001	1	j	1	0.9203166419174522
7	31	n/a	n/a	n/a	j	12	0.03000000000000001	0	j	1	1.013671049848199
7	32	n/a	n/a	n/a	f	12	0.04000000000000001	1	f	1	0.8458101048599929
7	33	n/a	n/a	n/a	j	12	0.03000000000000001	0	j	1	0.9065871469210833
7	34	n/a	n/a	n/a	j	12	0.04000000000000001	0	j	1	0.903496392769739
7	35	n/a	n/a	n/a	j	12	0.05000000000000002	0	j	1	1.006505665834993
7	36	n/a	n/a	n/a	j	12	0.06000000000000002	0	f	0	1.038391096983105
7	37	n/a	n/a	n/a	j	12	0.05000000000000002	2	j	1	0.08220049389638007
7	38	n/a	n/a	n/a	f	12	0.06000000000000002	2	j	0	0.818178630201146
7	39	n/a	n/a	n/a	j	12	0.07000000000000002	2	f	0	1.0262059813831
7	40	n/a	n/a	n/a	j	12	0.08000000000000002	1	j	1	1.111833645962179
7	41	n/a	n/a	n/a	j	12	0.07000000000000002	2	j	1	0.8209152920171618
7	42	n/a	n/a	n/a	j	12	0.08000000000000002	0	j	1	0.9373672509100288
7	43	n/a	n/a	n/a	j	12	0.09000000000000001	1	j	1	0.9020748909097165
7	44	n/a	n/a	n/a	f	12	0.08000000000000002	1	j	0	0.8660133345983922
7	45	n/a	n/a	n/a	j	12	0.09000000000000001	0	j	1	0.8895758814178407
7	46	n/a	n/a	n/a	j	12	0.1	1	j	1	0.9678311804309487
7	47	n/a	n/a	n/a	j	12	0.09000000000000001	1	j	1	0.9109300544951111
7	48	n/a	n/a	n/a	j	12	0.08000000000000002	1	j	1	0.8530074199661613
7	49	n/a	n/a	n/a	j	12	0.07000000000000002	0	j	1	0.90094333444722
7	50	n/a	n/a	n/a	f	12	0.08000000000000002	1	f	1	0.8929175226949155
7	51	n/a	n/a	n/a	j	12	0.07000000000000002	0	j	1	0.9636542005464435
7	52	n/a	n/a	n/a	j	12	0.08000000000000002	1	j	1	0.8991768632549793
7	53	n/a	n/a	n/a	j	12	0.07000000000000002	0	j	1	0.896539700916037
7	54	n/a	n/a	n/a	j	12	0.08000000000000002	0	j	1	0.9114993964321911
7	55	n/a	n/a	n/a	j	12	0.09000000000000001	1	j	1	0.9983854864258319
7	56	n/a	n/a	n/a	f	12	0.08000000000000002	1	f	1	0.9620231511071324
7	57	n/a	n/a	n/a	j	12	0.07000000000000002	1	j	1	0.9272739039734006
7	58	n/a	n/a	n/a	j	12	0.06000000000000002	1	j	1	0.9832384809851646
7	59	n/a	n/a	n/a	j	12	0.05000000000000002	1	j	1	0.9734308028127998
7	60	n/a	n/a	n/a	j	12	0.04000000000000001	1	j	1	0.8741771338973194
7	61	n/a	n/a	n/a	j	12	0.03000000000000001	0	j	1	0.8891336934175342
7	62	n/a	n/a	n/a	f	12	0.04000000000000001	0	f	1	0.9600910376757383
7	63	n/a	n/a	n/a	j	12	0.05000000000000002	1	j	1	0.94262361433357
7	64	n/a	n/a	n/a	j	12	0.04000000000000001	1	j	1	1.011893744813278
7	65	n/a	n/a	n/a	j	12	0.03000000000000001	2	j	1	0.9795404667966068
7	66	n/a	n/a	n/a	j	12	0.04000000000000001	1	j	1	0.9838169461581856
7	67	n/a	n/a	n/a	j	12	0.03000000000000001	1	j	1	0.9987159157171845
7	68	n/a	n/a	n/a	f	12	0.02000000000000001	1	f	1	0.9164997413754463
7	69	n/a	n/a	n/a	j	12	0.01000000000000001	0	j	1	0.9306095580104738
7	70	n/a	n/a	n/a	j	12	0.02000000000000001	0	j	1	0.8806349032092839
7	71	n/a	n/a	n/a	j	12	0.03000000000000001	0	j	1	1.014213877497241
8	0	f	1	0.4455116637982428	f	1	0.1	2	f	1	0.4411841516848654
8	1	n/a	n/a	n/a	j	1	0.11	1	j	1	0.4434161887038499
8	2	n/a	n/a	n/a	f	1	0.1	1	f	1	0.4816855487879366
8	3	n/a	n/a	n/a	f	1	0.09000000000000001	2	f	1	0.43365697725676
8	4	n/a	n/a	n/a	f	1	0.1	1	f	1	0.4146329155191779
8	5	n/a	n/a	n/a	j	1	0.09000000000000001	1	j	1	0.414657719200477
8	6	n/a	n/a	n/a	f	1	0.08000000000000002	1	f	1	0.4120949674397707
8	7	n/a	n/a	n/a	f	1	0.07000000000000002	1	f	1	0.4505838535260409
8	8	n/a	n/a	n/a	f	1	0.06000000000000002	2	f	1	0.3995586102828383
8	9	n/a	n/a	n/a	j	1	0.07000000000000002	1	j	1	0.4145325608551502
8	10	n/a	n/a	n/a	f	1	0.06000000000000002	1	f	1	0.3904659594409168
8	11	n/a	n/a	n/a	f	1	0.05000000000000002	1	f	1	0.4620858728885651
8	12	n/a	n/a	n/a	f	1	0.04000000000000001	2	f	1	0.4135261627379805
8	13	n/a	n/a	n/a	j	1	0.05000000000000002	1	j	1	0.4044298054650426
8	14	n/a	n/a	n/a	f	1	0.04000000000000001	1	f	1	0.4183326405473053
8	15	n/a	n/a	n/a	f	1	0.03000000000000001	2	f	1	0.4494189405813813
8	16	n/a	n/a	n/a	f	1	0.04000000000000001	2	f	1	0.3916294469963759
8	17	n/a	n/a	n/a	j	1	0.05000000000000002	1	j	1	0.3913563224487007
8	18	n/a	n/a	n/a	f	1	0.04000000000000001	1	f	1	0.3993040171917528
8	19	n/a	n/a	n/a	f	1	0.03000000000000001	1	f	1	0.4313160325400531
8	20	n/a	n/a	n/a	f	1	0.02000000000000001	2	f	1	0.4372338249813765
8	21	n/a	n/a	n/a	j	1	0.03000000000000001	2	j	1	0.3941249153576791
8	22	n/a	n/a	n/a	f	1	0.04000000000000001	1	f	1	0.41616988228634
8	23	n/a	n/a	n/a	f	1	0.03000000000000001	2	f	1	0.440100206527859
8	24	n/a	n/a	n/a	f	1	0.04000000000000001	2	f	1	0.399171446217224
8	25	n/a	n/a	n/a	j	1	0.05000000000000002	1	j	1	0.3500107482541353
8	26	n/a	n/a	n/a	f	1	0.04000000000000001	1	f	1	0.4181456158403307
8	27	n/a	n/a	n/a	f	1	0.03000000000000001	2	f	1	0.3733383738435805
8	28	n/a	n/a	n/a	f	1	0.04000000000000001	1	f	1	0.3780963849276304
8	29	n/a	n/a	n/a	j	1	0.03000000000000001	1	j	1	0.3583553002681583
8	30	n/a	n/a	n/a	f	1	0.02000000000000001	0	f	1	0.3730461478698999
8	31	n/a	n/a	n/a	f	1	0.03000000000000001	1	f	1	0.4281691135838628
8	32	n/a	n/a	n/a	f	1	0.02000000000000001	2	f	1	0.3300164956599474
8	33	n/a	n/a	n/a	j	1	0.03000000000000001	0	j	1	0.3678961261175573
8	34	n/a	n/a	n/a	f	1	0.04000000000000001	1	f	1	0.3978942043613642
8	35	n/a	n/a	n/a	f	1	0.03000000000000001	1	f	1	0.4116784385405481
8	36	n/a	n/a	n/a	f	1	0.02000000000000001	2	f	1	0.3528836870100349
8	37	n/a	n/a	n/a	j	1	0.03000000000000001	0	j	1	0.3987737337592989
8	38	n/a	n/a	n/a	f	1	0.04000000000000001	1	f	1	0.4120533431414515
8	39	n/a	n/a	n/a	f	1	0.03000000000000001	1	f	1	0.402818142902106
8	40	n/a	n/a	n/a	f	1	0.02000000000000001	2	f	1	0.350327777909115
8	41	n/a	n/a	n/a	j	1	0.03000000000000001	0	j	1	0.402768820989877
8	42	n/a	n/a	n/a	f	1	0.04000000000000001	1	f	1	0.4073295437265188
8	43	n/a	n/a	n/a	f	1	0.03000000000000001	1	f	1	0.4619011289905757
8	44	n/a	n/a	n/a	f	1	0.02000000000000001	2	f	1	0.3958625914528966
8	45	n/a	n/a	n/a	j	1	0.03000000000000001	1	j	1	0.3542387608904392
8	46	n/a	n/a	n/a	f	1	0.02000000000000001	0	f	1	0.4236437429208308
8	47	n/a	n/a	n/a	f	1	0.03000000000000001	2	f	1	0.3744727813173085
8	48	n/a	n/a	n/a	f	1	0.04000000000000001	1	f	1	0.3243880786467344
8	49	n/a	n/a	n/a	j	1	0.03000000000000001	0	j	1	0.3427889146842062
8	50	n/a	n/a	n/a	f	1	0.04000000000000001	1	f	1	0.356455973116681
8	51	n/a	n/a	n/a	f	1	0.03000000000000001	1	f	1	0.3689236214850098
8	52	n/a	n/a	n/a	f	1	0.02000000000000001	1	f	1	0.3195191640406847
8	53	n/a	n/a	n/a	j	1	0.01000000000000001	0	j	1	0.3177740753162652
8	54	n/a	n/a	n/a	f	1	0.02000000000000001	0	f	1	0.3395139868371189
8	55	n/a	n/a	n/a	f	1	0.03000000000000001	0	f	1	0.3623883053660393
8	56	n/a	n/a	n/a	f	1	0.04000000000000001	1	f	1	0.2972250208258629
8	57	n/a	n/a	n/a	j	1	0.03000000000000001	0	j	1	0.3364320704713464
8	58	n/a	n/a	n/a	f	1	0.04000000000000001	0	f	1	0.3683993250597268
8	59	n/a	n/a	n/a	f	1	0.05000000000000002	1	f	1	0.3993667389731854
8	60	n/a	n/a	n/a	f	1	0.04000000000000001	1	f	1	0.3101491122506559
8	61	n/a	n/a	n/a	j	1	0.03000000000000001	0	j	1	0.3703622291795909
8	62	n/a	n/a	n/a	f	1	0.04000000000000001	1	f	1	0.4183132539037615
8	63	n/a	n/a	n/a	f	1	0.03000000000000001	2	f	1	0.3773021001834422
8	64	n/a	n/a	n/a	f	1	0.04000000000000001	1	f	1	0.2928995045367628
8	65	n/a	n/a	n/a	j	1	0.03000000000000001	0	j	1	0.3932362629566342
8	66	n/a	n/a	n/a	f	1	0.04000000000000001	1	f	1	0.3672178762499243
8	67	n/a	n/a	n/a	f	1	0.03000000000000001	1	f	1	0.372307742247358
8	68	n/a	n/a	n/a	f	1	0.02000000000000001	1	f	1	0.3620741267222911
8	69	n/a	n/a	n/a	j	1	0.01000000000000001	0	j	1	0.3540708380751312
8	70	n/a	n/a	n/a	f	1	0.02000000000000001	0	f	1	0.3861661017872393
8	71	n/a	n/a	n/a	f	1	0.03000000000000001	1	f	1	0.3931153810117394
9	0	j	1	0.403307372238487	j	10	0.1	0	j	1	0.8846145949792117
9	1	n/a	n/a	n/a	f	10	0.11	1	f	1	0.8772547738626599
9	2	n/a	n/a	n/a	j	10	0.1	0	j	1	0.9554539083037525
9	3	n/a	n/a	n/a	j	10	0.11	1	j	1	0.9833679159637541
9	4	n/a	n/a	n/a	j	10	0.1	1	j	1	0.9423470688052475
9	5	n/a	n/a	n/a	f	10	0.09000000000000001	1	f	1	0.9409355456009507
9	6	n/a	n/a	n/a	j	10	0.08000000000000002	1	j	1	0.9512304572854191
9	7	n/a	n/a	n/a	j	10	0.07000000000000002	1	j	1	0.9793716880958527
9	8	n/a	n/a	n/a	j	10	0.06000000000000002	1	j	1	0.93016851041466
9	9	n/a	n/a	n/a	f	10	0.05000000000000002	0	f	1	0.9440511034335941
9	10	n/a	n/a	n/a	j	10	0.06000000000000002	1	j	1	0.8492204546928406
9	11	n/a	n/a	n/a	j	10	0.05000000000000002	0	j	1	0.9449560062494129
9	12	n/a	n/a	n/a	j	10	0.06000000000000002	1	j	1	1.094914752524346
9	13	n/a	n/a	n/a	f	10	0.05000000000000002	2	f	1	0.9224061300046742
9	14	n/a	n/a	n/a	j	10	0.06000000000000002	0	j	1	0.8887622100301087
9	15	n/a	n/a	n/a	j	10	0.07000000000000002	0	j	1	0.9837727558333427
9	16	n/a	n/a	n/a	j	10	0.08000000000000002	1	j	1	0.9106985542457551
9	17	n/a	n/a	n/a	f	10	0.07000000000000002	0	f	1	0.9586663998197764
9	18	n/a	n/a	n/a	j	10	0.08000000000000002	1	j	1	0.9486950752325356
9	19	n/a	n/a	n/a	j	10	0.07000000000000002	1	j	1	1.097505729179829
9	20	n/a	n/a	n/a	j	10	0.06000000000000002	2	j	1	0.8798694133292884
9	21	n/a	n/a	n/a	f	10	0.07000000000000002	0	f	1	1.014410595642403
9	22	n/a	n/a	n/a	j	10	0.08000000000000002	1	j	1	0.9404468864668161
9	23	n/a	n/a	n/a	j	10	0.07000000000000002	1	j	1	1.008286962052807
9	24	n/a	n/a	n/a	j	10	0.06000000000000002	1	j	1	0.8212537041399628
9	25	n/a	n/a	n/a	f	10	0.05000000000000002	0	f	1	1.041758112143725
9	26	n/a	n/a	n/a	j	10	0.06000000000000002	1	j	1	0.9590279047843069
9	27	n/a	n/a	n/a	j	10	0.05000000000000002	1	j	1	0.9340341626666486
9	28	n/a	n/a	n/a	j	10	0.04000000000000001	0	j	1	0.9069415244739503
9	29	n/a	n/a	n/a	f	10	0.05000000000000002	0	f	1	1.12841270188801
9	30	n/a	n/a	n/a	j	10	0.06000000000000002	2	j	1	0.926903560757637
9	31	n/a	n/a	n/a	j	10	0.07000000000000002	1	j	1	0.9000384313985705
9	32	n/a	n/a	n/a	j	10	0.06000000000000002	0	j	1	0.9158029605168849
9	33	n/a	n/a	n/a	f	10	0.07000000000000002	0	f	1	0.9156857847701758
9	34	n/a	n/a	n/a	j	10	0.08000000000000002	1	j	1	1.08064784668386
9	35	n/a	n/a	n/a	j	10	0.07000000000000002	2	j	1	0.9356156049761921
9	36	n/a	n/a	n/a	j	10	0.08000000000000002	1	j	1	0.8435723655857146
9	37	n/a	n/a	n/a	f	10	0.07000000000000002	0	f	1	0.9370821523480117
9	38	n/a	n/a	n/a	j	10	0.08000000000000002	1	j	1	0.8672036214265972
9	39	n/a	n/a	n/a	j	10	0.07000000000000002	0	j	1	0.9941626053769141
9	40	n/a	n/a	n/a	j	10	0.08000000000000002	1	j	1	0.9130631624720991
9	41	n/a	n/a	n/a	f	10	0.07000000000000002	1	f	1	0.9132812628522515
9	42	n/a	n/a	n/a	j	10	0.06000000000000002	0	j	1	0.9118532037828118
9	43	n/a	n/a	n/a	j	10	0.07000000000000002	1	j	1	0.9580733948387206
9	44	n/a	n/a	n/a	j	10	0.06000000000000002	1	j	1	0.8911393624730408
9	45	n/a	n/a	n/a	f	10	0.05000000000000002	0	f	1	0.890664673410356
9	46	n/a	n/a	n/a	j	10	0.06000000000000002	0	j	1	0.8808649778366089
9	47	n/a	n/a	n/a	j	10	0.07000000000000002	0	j	1	0.95942447707057
9	48	n/a	n/a	n/a	j	10	0.08000000000000002	1	j	1	0.9339546202681959
9	49	n/a	n/a	n/a	f	10	0.07000000000000002	1	f	1	0.9650999356526881
9	50	n/a	n/a	n/a	j	10	0.06000000000000002	1	j	1	0.9388203986454755
9	51	n/a	n/a	n/a	j	10	0.05000000000000002	1	j	1	0.9067867158446461
9	52	n/a	n/a	n/a	j	10	0.04000000000000001	0	j	1	0.9447302082553506
9	53	n/a	n/a	n/a	f	10	0.05000000000000002	1	f	1	0.9113277671858668
9	54	n/a	n/a	n/a	j	10	0.04000000000000001	0	j	1	0.9253845552448183
9	55	n/a	n/a	n/a	j	10	0.05000000000000002	0	j	1	1.154545413097367
9	56	n/a	n/a	n/a	j	10	0.06000000000000002	2	j	1	0.866526797413826
9	57	n/a	n/a	n/a	f	10	0.07000000000000002	0	f	1	0.8804572869557887
9	58	n/a	n/a	n/a	j	10	0.08000000000000002	0	j	1	1.048379527870566
9	59	n/a	n/a	n/a	j	10	0.09000000000000001	1	j	1	0.8779689457733184
9	60	n/a	n/a	n/a	j	10	0.08000000000000002	0	j	1	1.036436460912228
9	61	n/a	n/a	n/a	f	10	0.09000000000000001	1	f	1	0.9940782161429524
9	62	n/a	n/a	n/a	j	10	0.08000000000000002	1	j	1	0.9911702100653201
9	63	n/a	n/a	n/a	j	10	0.07000000000000002	1	j	1	0.9510964609216899
9	64	n/a	n/a	n/a	j	10	0.06000000000000002	1	j	1	1.036970165558159
9	65	n/a	n/a	n/a	f	10	0.05000000000000002	2	f	1	0.940001847455278
9	66	n/a	n/a	n/a	j	10	0.06000000000000002	1	j	1	0.9789243685081601
9	67	n/a	n/a	n/a	j	10	0.05000000000000002	1	j	1	0.944818303687498
9	68	n/a	n/a	n/a	j	10	0.04000000000000001	0	j	1	0.9287929094862193
9	69	n/a	n/a	n/a	f	10	0.05000000000000002	0	f	1	0.9260576732922345
9	70	n/a	n/a	n/a	j	10	0.06000000000000002	1	j	1	0.8758375484030694
9	71	n/a	n/a	n/a	j	10	0.05000000000000002	0	j	1	0.8326659174636006
10	0	j	1	0.7770682624541223	j	6	0.1	2	j	1	0.5203663061838597
10	1	n/a	n/a	n/a	f	6	0.11	1	f	1	0.5176017044577748
10	2	n/a	n/a	n/a	j	6	0.1	1	j	1	0.4836772480048239
10	3	n/a	n/a	n/a	j	6	0.09000000000000001	0	j	1	0.545501742279157
10	4	n/a	n/a	n/a	j	6	0.1	1	j	1	0.4804362466093153
10	5	n/a	n/a	n/a	f	6	0.09000000000000001	0	f	1	0.5044307177886367
10	6	n/a	n/a	n/a	j	6	0.1	1	j	1	0.5333559701684862
10	7	n/a	n/a	n/a	j	6	0.09000000000000001	1	j	1	0.5175164602696896
10	8	n/a	n/a	n/a	j	6	0.08000000000000002	1	j	1	0.4903354414273053
10	9	n/a	n/a	n/a	f	6	0.07000000000000002	0	f	1	0.5362431642133743
10	10	n/a	n/a	n/a	j	6	0.08000000000000002	1	j	1	0.4690665130037814
10	11	n/a	n/a	n/a	j	6	0.07000000000000002	0	j	1	0.5458968889433891
10	12	n/a	n/a	n/a	j	6	0.08000000000000002	1	j	1	0.9483723433222622
10	13	n/a	n/a	n/a	f	6	0.07000000000000002	2	f	1	0.4441651427187026
10	14	n/a	n/a	n/a	j	6	0.08000000000000002	0	j	1	0.4831620745826513
10	15	n/a	n/a	n/a	j	6	0.09000000000000001	0	j	1	0.498116068309173
10	16	n/a	n/a	n/a	j	6	0.1	1	j	1	0.5050890105776489
10	17	n/a	n/a	n/a	f	6	0.09000000000000001	1	f	1	0.5011252844706178
10	18	n/a	n/a	n/a	j	6	0.08000000000000002	0	j	1	0.4740400586742908
10	19	n/a	n/a	n/a	j	6	0.09000000000000001	0	j	1	0.5060440909583122
10	20	n/a	n/a	n/a	j	6	0.1	1	j	1	0.4960114702116698
10	21	n/a	n/a	n/a	f	6	0.09000000000000001	1	f	1	0.4879289236851037
10	22	n/a	n/a	n/a	j	6	0.08000000000000002	0	j	1	0.4767727288417518
10	23	n/a	n/a	n/a	j	6	0.09000000000000001	0	j	1	0.5131550212390721
10	24	n/a	n/a	n/a	j	6	0.1	1	j	1	0.5038896007463336
10	25	n/a	n/a	n/a	f	6	0.09000000000000001	1	f	1	0.5268118162639439
10	26	n/a	n/a	n/a	j	6	0.08000000000000002	1	j	1	0.4787872359156609
10	27	n/a	n/a	n/a	j	6	0.07000000000000002	0	j	1	0.4868059202563018
10	28	n/a	n/a	n/a	j	6	0.08000000000000002	0	j	1	0.4768967470154166
10	29	n/a	n/a	n/a	f	6	0.09000000000000001	0	f	1	0.5147535693831742
10	30	n/a	n/a	n/a	j	6	0.1	1	j	1	0.4646517606452107
10	31	n/a	n/a	n/a	j	6	0.09000000000000001	0	j	1	0.5346717003267258
10	32	n/a	n/a	n/a	j	6	0.1	1	j	1	0.5238462199922651
10	33	n/a	n/a	n/a	f	6	0.09000000000000001	1	f	1	0.4991826221812516
10	34	n/a	n/a	n/a	j	6	0.08000000000000002	0	j	1	0.4805400224868208
10	35	n/a	n/a	n/a	j	6	0.09000000000000001	0	j	1	0.5177707681432366
10	36	n/a	n/a	n/a	j	6	0.1	1	j	1	0.5064537778962404
10	37	n/a	n/a	n/a	f	6	0.09000000000000001	1	f	1	0.5444320521783084
10	38	n/a	n/a	n/a	j	6	0.08000000000000002	1	j	1	0.5017125874292105
10	39	n/a	n/a	n/a	j	6	0.07000000000000002	0	j	1	0.4983937542419881
10	40	n/a	n/a	n/a	j	6	0.08000000000000002	0	j	1	0.4962808883283287
10	41	n/a	n/a	n/a	f	6	0.09000000000000001	1	f	1	0.4997696401551366
10	42	n/a	n/a	n/a	j	6	0.08000000000000002	0	j	1	0.5203691571950912
10	43	n/a	n/a	n/a	j	6	0.09000000000000001	1	j	1	1.316764826187864
10	44	n/a	n/a	n/a	j	6	0.08000000000000002	2	j	1	0.4914065569173545
10	45	n/a	n/a	n/a	f	6	0.09000000000000001	0	f	1	0.5134654936846346
10	46	n/a	n/a	n/a	j	6	0.1	1	j	1	0.4540925624314696
10	47	n/a	n/a	n/a	j	6	0.09000000000000001	0	j	1	0.4781260923482478
10	48	n/a	n/a	n/a	j	6	0.1	0	j	1	0.5070282516535372
10	49	n/a	n/a	n/a	f	6	0.11	1	f	1	0.4900808483362198
10	50	n/a	n/a	n/a	j	6	0.1	1	j	1	0.487936906516552
10	51	n/a	n/a	n/a	j	6	0.09000000000000001	0	j	1	0.5090327800717205
10	52	n/a	n/a	n/a	j	6	0.1	1	j	1	0.505996479652822
10	53	n/a	n/a	n/a	f	6	0.09000000000000001	1	f	1	0.5019113011658192
10	54	n/a	n/a	n/a	j	6	0.08000000000000002	1	j	1	0.508178909542039
10	55	n/a	n/a	n/a	j	6	0.07000000000000002	0	j	1	0.5218436873983592
10	56	n/a	n/a	n/a	j	6	0.08000000000000002	1	j	1	0.4648590271826833
10	57	n/a	n/a	n/a	f	6	0.07000000000000002	0	f	1	0.5028675221838057
10	58	n/a	n/a	n/a	j	6	0.08000000000000002	1	j	1	0.4609879578929394
10	59	n/a	n/a	n/a	j	6	0.07000000000000002	0	j	1	0.4827598005067557
10	60	n/a	n/a	n/a	j	6	0.08000000000000002	0	j	1	0.536797110689804
10	61	n/a	n/a	n/a	f	6	0.09000000000000001	1	f	1	0.5587787856347859
10	62	n/a	n/a	n/a	j	6	0.08000000000000002	1	j	1	0.4278803085908294
10	63	n/a	n/a	n/a	j	6	0.07000000000000002	0	j	1	0.5126740597188473
10	64	n/a	n/a	n/a	j	6	0.08000000000000002	1	j	1	0.487605907022953
10	65	n/a	n/a	n/a	f	6	0.07000000000000002	0	f	1	0.5026656722184271
10	66	n/a	n/a	n/a	j	6	0.08000000000000002	1	j	1	0.4847731669433415
10	67	n/a	n/a	n/a	j	6	0.07000000000000002	0	j	1	0.4974603413138539
10	68	n/a	n/a	n/a	j	6	0.08000000000000002	0	j	1	0.4571029187645763
10	69	n/a	n/a	n/a	f	6	0.09000000000000001	0	f	1	0.4705407579895109
10	70	n/a	n/a	n/a	j	6	0.1	0	j	1	0.4584428824018687
10	71	n/a	n/a	n/a	j	6	0.11	0	j	1	0.5144795894157141
11	0	j	1	0.3674319854471833	j	2	0.1	2	j	1	0.3883827438112348
11	1	n/a	n/a	n/a	f	2	0.11	1	f	1	0.4086709329858422
11	2	n/a	n/a	n/a	j	2	0.1	1	j	1	0.3826100665610284
11	3	n/a	n/a	n/a	j	2	0.09000000000000001	1	j	1	0.3746295855380595
11	4	n/a	n/a	n/a	j	2	0.08000000000000002	1	j	1	0.3887530870269984
11	5	n/a	n/a	n/a	f	2	0.07000000000000002	1	f	1	0.3864352351520211
11	6	n/a	n/a	n/a	j	2	0.06000000000000002	1	j	1	0.4013638547621667
11	7	n/a	n/a	n/a	j	2	0.05000000000000002	1	j	1	0.3930871563497931
11	8	n/a	n/a	n/a	j	2	0.04000000000000001	1	j	1	0.3914823362138122
11	9	n/a	n/a	n/a	f	2	0.03000000000000001	1	f	1	0.4136698523070663
11	10	n/a	n/a	n/a	j	2	0.02000000000000001	2	j	1	0.3646334572695196
11	11	n/a	n/a	n/a	j	2	0.03000000000000001	1	j	1	0.4125457084737718
11	12	n/a	n/a	n/a	j	2	0.02000000000000001	2	j	1	0.3944271199870855
11	13	n/a	n/a	n/a	f	2	0.03000000000000001	1	f	1	0.4063844417687505
11	14	n/a	n/a	n/a	j	2	0.02000000000000001	2	j	1	0.388460005633533
11	15	n/a	n/a	n/a	j	2	0.03000000000000001	1	j	1	0.3715060448739678
11	16	n/a	n/a	n/a	j	2	0.02000000000000001	1	j	1	0.3552688222844154
11	17	n/a	n/a	n/a	f	2	0.01000000000000001	0	f	1	0.4022895700763911
11	18	n/a	n/a	n/a	j	2	0.02000000000000001	2	j	1	0.356959457276389
11	19	n/a	n/a	n/a	j	2	0.03000000000000001	1	j	1	0.3862254023551941
11	20	n/a	n/a	n/a	j	2	0.02000000000000001	1	j	1	0.3521529792342335
11	21	n/a	n/a	n/a	f	2	0.01000000000000001	0	f	1	0.4541712496429682
11	22	n/a	n/a	n/a	j	2	0.02000000000000001	2	j	1	0.3781573961023241
11	23	n/a	n/a	n/a	j	2	0.03000000000000001	1	j	1	0.3841592925600708
11	24	n/a	n/a	n/a	j	2	0.02000000000000001	1	j	1	0.3511417345143855
11	25	n/a	n/a	n/a	f	2	0.01000000000000001	0	f	1	0.3420365392230451
11	26	n/a	n/a	n/a	j	2	0.02000000000000001	0	j	1	0.3720249244943261
11	27	n/a	n/a	n/a	j	2	0.03000000000000001	1	j	1	0.3835631513502449
11	28	n/a	n/a	n/a	j	2	0.02000000000000001	1	j	1	0.3660201770253479
11	29	n/a	n/a	n/a	f	2	0.01000000000000001	0	f	1	0.3741791297215968
11	30	n/a	n/a	n/a	j	2	0.02000000000000001	1	j	1	0.3806223589926958
11	31	n/a	n/a	n/a	j	2	0.01000000000000001	1	j	1	0.3949180596973747
11	32	n/a	n/a	n/a	j	2	1.040834085586084e-17	2	j	1	0.3786588846705854
11	33	n/a	n/a	n/a	f	2	0.01000000000000001	1	f	1	0.3769531394354999
11	34	n/a	n/a	n/a	j	2	1.040834085586084e-17	0	j	1	0.4058949276804924
11	35	n/a	n/a	n/a	j	2	0.01000000000000001	2	j	1	0.3978890725411475
11	36	n/a	n/a	n/a	j	2	0.02000000000000001	1	j	1	0.412850763881579
11	37	n/a	n/a	n/a	f	2	0.01000000000000001	2	f	1	0.4290187077131122
11	38	n/a	n/a	n/a	j	2	0.02000000000000001	2	j	1	0.4035613951273263
11	39	n/a	n/a	n/a	j	2	0.03000000000000001	1	j	1	0.4114449424669147
11	40	n/a	n/a	n/a	j	2	0.02000000000000001	2	j	1	0.3894028265494853
11	41	n/a	n/a	n/a	f	2	0.03000000000000001	1	f	1	0.3846847291570157
11	42	n/a	n/a	n/a	j	2	0.02000000000000001	1	j	1	0.3896668280940503
11	43	n/a	n/a	n/a	j	2	0.01000000000000001	1	j	1	0.3776921150274575
11	44	n/a	n/a	n/a	j	2	1.040834085586084e-17	0	j	1	0.3384499985259026
11	45	n/a	n/a	n/a	f	2	0.01000000000000001	0	f	1	0.4076779345050454
11	46	n/a	n/a	n/a	j	2	0.02000000000000001	2	j	1	0.3502237170469016
11	47	n/a	n/a	n/a	j	2	0.03000000000000001	0	j	1	0.4105953488033265
11	48	n/a	n/a	n/a	j	2	0.04000000000000001	1	j	1	0.3782380791381001
11	49	n/a	n/a	n/a	f	2	0.03000000000000001	1	f	1	0.3744622326921672
11	50	n/a	n/a	n/a	j	2	0.02000000000000001	1	j	1	0.3803227201569825
11	51	n/a	n/a	n/a	j	2	0.01000000000000001	1	j	1	0.4024754543788731
11	52	n/a	n/a	n/a	j	2	1.040834085586084e-17	2	j	1	0.4013370554894209
11	53	n/a	n/a	n/a	f	2	0.01000000000000001	2	f	1	0.397635905072093
11	54	n/a	n/a	n/a	j	2	0.02000000000000001	1	j	1	0.3478924653027207
11	55	n/a	n/a	n/a	j	2	0.01000000000000001	0	j	1	0.4063790249638259
11	56	n/a	n/a	n/a	j	2	0.02000000000000001	2	j	1	0.4283527173101902
11	57	n/a	n/a	n/a	f	2	0.03000000000000001	2	f	1	0.3623153201770037
11	58	n/a	n/a	n/a	j	2	0.04000000000000001	1	j	1	0.342334182234481
11	59	n/a	n/a	n/a	j	2	0.03000000000000001	0	j	1	0.9255330916494131
11	60	n/a	n/a	n/a	j	2	0.04000000000000001	2	j	1	0.3974494505673647
11	61	n/a	n/a	n/a	f	2	0.05000000000000002	1	f	1	0.4284068860579282
11	62	n/a	n/a	n/a	j	2	0.04000000000000001	2	j	1	0.3723582047969103
11	63	n/a	n/a	n/a	j	2	0.05000000000000002	1	j	1	0.3781699405517429
11	64	n/a	n/a	n/a	j	2	0.04000000000000001	1	j	1	0.3921919465065002
11	65	n/a	n/a	n/a	f	2	0.03000000000000001	1	f	1	0.3341284734196961
11	66	n/a	n/a	n/a	j	2	0.02000000000000001	0	j	1	0.3540688422508538
11	67	n/a	n/a	n/a	j	2	0.03000000000000001	0	j	1	0.4341738610528409
11	68	n/a	n/a	n/a	j	2	0.04000000000000001	2	j	1	0.3760220073163509
11	69	n/a	n/a	n/a	f	2	0.05000000000000002	1	f	1	0.399093899410218
11	70	n/a	n/a	n/a	j	2	0.04000000000000001	1	j	1	0.3558450068812817
11	71	n/a	n/a	n/a	j	2	0.03000000000000001	1	j	1	0.4316801032982767
12	0	f	1	0.3067715486977249	f	5	0.04000000000000001	0	f	1	0.4870040637906641
12	1	n/a	n/a	n/a	j	5	0.05000000000000002	0	j	1	0.4762327522039413
12	2	n/a	n/a	n/a	f	5	0.06000000000000002	0	f	1	0.6359447226859629
12	3	n/a	n/a	n/a	f	5	0.07000000000000002	1	f	1	0.5289683023001999
12	4	n/a	n/a	n/a	f	5	0.06000000000000002	1	f	1	0.5081036437768489
12	5	n/a	n/a	n/a	j	5	0.05000000000000002	0	j	1	0.5708760910201818
12	6	n/a	n/a	n/a	f	5	0.06000000000000002	1	f	1	0.559788890182972
12	7	n/a	n/a	n/a	f	5	0.05000000000000002	1	f	1	0.5497996041085571
12	8	n/a	n/a	n/a	f	5	0.04000000000000001	1	f	1	0.532895821146667
12	9	n/a	n/a	n/a	j	5	0.03000000000000001	0	j	1	0.5245184826198965
12	10	n/a	n/a	n/a	f	5	0.04000000000000001	0	f	1	0.5386542431078851
12	11	n/a	n/a	n/a	f	5	0.05000000000000002	1	f	1	0.5705701801925898
12	12	n/a	n/a	n/a	f	5	0.04000000000000001	1	f	1	0.5385065621230751
12	13	n/a	n/a	n/a	j	5	0.03000000000000001	0	j	1	0.5362163649406284
12	14	n/a	n/a	n/a	f	5	0.04000000000000001	0	f	1	0.5567562959622592
12	15	n/a	n/a	n/a	f	5	0.05000000000000002	1	f	1	0.6665249725338072
12	16	n/a	n/a	n/a	f	5	0.04000000000000001	2	f	1	0.5851190485991538
12	17	n/a	n/a	n/a	j	5	0.05000000000000002	1	j	1	0.5894291696604341
12	18	n/a	n/a	n/a	f	5	0.04000000000000001	1	f	1	0.5564207350835204
12	19	n/a	n/a	n/a	f	5	0.03000000000000001	0	f	1	0.6410075044259429
12	20	n/a	n/a	n/a	f	5	0.04000000000000001	2	f	1	0.549599464982748
12	21	n/a	n/a	n/a	j	5	0.05000000000000002	1	j	1	0.5554553910624236
12	22	n/a	n/a	n/a	f	5	0.04000000000000001	1	f	1	0.5703121658880264
12	23	n/a	n/a	n/a	f	5	0.03000000000000001	1	f	1	0.6102296812459826
12	24	n/a	n/a	n/a	f	5	0.02000000000000001	2	f	1	0.5032521202228963
12	25	n/a	n/a	n/a	j	5	0.03000000000000001	0	j	1	0.5644245939329267
12	26	n/a	n/a	n/a	f	5	0.04000000000000001	1	f	1	0.5321642579510808
12	27	n/a	n/a	n/a	f	5	0.03000000000000001	0	f	1	0.5466991565190256
12	28	n/a	n/a	n/a	f	5	0.04000000000000001	1	f	1	0.5431071987841278
12	29	n/a	n/a	n/a	j	5	0.03000000000000001	0	j	1	0.5096292064990848
12	30	n/a	n/a	n/a	f	5	0.04000000000000001	0	f	1	0.5401666914112866
12	31	n/a	n/a	n/a	f	5	0.05000000000000002	1	f	1	0.5789962701965123
12	32	n/a	n/a	n/a	f	5	0.04000000000000001	1	f	1	0.5215996426995844
12	33	n/a	n/a	n/a	j	5	0.03000000000000001	0	j	1	0.5508228233084083
12	34	n/a	n/a	n/a	f	5	0.04000000000000001	1	f	1	0.5658939925488085
12	35	n/a	n/a	n/a	f	5	0.03000000000000001	1	f	1	0.5490093107800931
12	36	n/a	n/a	n/a	f	5	0.02000000000000001	0	f	1	0.5627929745242
12	37	n/a	n/a	n/a	j	5	0.03000000000000001	1	j	1	0.5778071240056306
12	38	n/a	n/a	n/a	f	5	0.02000000000000001	1	f	1	0.5497100830543786
12	39	n/a	n/a	n/a	f	5	0.01000000000000001	0	f	1	0.5809221116360277
12	40	n/a	n/a	n/a	f	5	0.02000000000000001	1	f	1	0.5706337571609765
12	41	n/a	n/a	n/a	j	5	0.01000000000000001	0	j	1	0.614639587001875
12	42	n/a	n/a	n/a	f	5	0.02000000000000001	2	f	1	0.5238154295366257
12	43	n/a	n/a	n/a	f	5	0.03000000000000001	0	f	1	0.5471755561884493
12	44	n/a	n/a	n/a	f	5	0.04000000000000001	1	f	1	0.5447952679824084
12	45	n/a	n/a	n/a	j	5	0.03000000000000001	0	j	1	0.5739659899845719
12	46	n/a	n/a	n/a	f	5	0.04000000000000001	1	f	1	0.5406128708273172
12	47	n/a	n/a	n/a	f	5	0.03000000000000001	0	f	1	0.5792283406481147
12	48	n/a	n/a	n/a	f	5	0.04000000000000001	1	f	1	0.5303826765157282
12	49	n/a	n/a	n/a	j	5	0.03000000000000001	0	j	1	0.5924013231415302
12	50	n/a	n/a	n/a	f	5	0.04000000000000001	1	f	1	0.5273478014860302
12	51	n/a	n/a	n/a	f	5	0.03000000000000001	0	f	1	0.5502443579025567
12	52	n/a	n/a	n/a	f	5	0.04000000000000001	1	f	1	0.5254886732436717
12	53	n/a	n/a	n/a	j	5	0.03000000000000001	0	j	1	0.5324627561494708
12	54	n/a	n/a	n/a	f	5	0.04000000000000001	0	f	1	0.5714308929163963
12	55	n/a	n/a	n/a	f	5	0.05000000000000002	1	f	1	0.5452212051022798
12	56	n/a	n/a	n/a	f	5	0.04000000000000001	1	f	1	0.5188518620561808
12	57	n/a	n/a	n/a	j	5	0.03000000000000001	0	j	1	0.5653457476291806
12	58	n/a	n/a	n/a	f	5	0.04000000000000001	1	f	1	0.5478837413247675
12	59	n/a	n/a	n/a	f	5	0.03000000000000001	0	f	1	0.5840094448067248
12	60	n/a	n/a	n/a	f	5	0.04000000000000001	1	f	1	0.5250011545140296
12	61	n/a	n/a	n/a	j	5	0.03000000000000001	0	j	1	0.5059528595302254
12	62	n/a	n/a	n/a	f	5	0.04000000000000001	0	f	1	0.5777737675234675
12	63	n/a	n/a	n/a	f	5	0.05000000000000002	1	f	1	0.5679572510998696
12	64	n/a	n/a	n/a	f	5	0.04000000000000001	1	f	1	0.5748991176951677
12	65	n/a	n/a	n/a	j	5	0.03000000000000001	1	j	1	0.59785953653045
12	66	n/a	n/a	n/a	f	5	0.02000000000000001	1	f	1	0.5736056251917034
12	67	n/a	n/a	n/a	f	5	0.01000000000000001	0	f	1	0.5787741786334664
12	68	n/a	n/a	n/a	f	5	0.02000000000000001	1	f	1	0.6337622927967459
12	69	n/a	n/a	n/a	j	5	0.01000000000000001	2	j	1	0.5767109196167439
12	70	n/a	n/a	n/a	f	5	0.02000000000000001	1	f	1	0.5257341433316469
12	71	n/a	n/a	n/a	f	5	0.01000000000000001	0	f	1	0.5234619069378823
13	0	f	1	0.3409041275735945	f	11	0.06000000000000002	0	f	1	0.9501145810354501
13	1	n/a	n/a	n/a	f	11	0.07000000000000002	1	f	1	1.075156561797485
13	2	n/a	n/a	n/a	j	11	0.06000000000000002	2	j	1	1.009976741857827
13	3	n/a	n/a	n/a	f	11	0.07000000000000002	1	f	1	1.000977033050731
13	4	n/a	n/a	n/a	f	11	0.06000000000000002	1	f	1	1.040905382251367
13	5	n/a	n/a	n/a	f	11	0.05000000000000002	2	f	1	1.032795466249809
13	6	n/a	n/a	n/a	f	11	0.06000000000000002	1	f	1	1.038619461236522
13	7	n/a	n/a	n/a	f	11	0.05000000000000002	2	f	1	0.9969605633523315
13	8	n/a	n/a	n/a	j	11	0.06000000000000002	1	j	1	0.9946928890421987
13	9	n/a	n/a	n/a	f	11	0.05000000000000002	1	f	1	0.9922111053019762
13	10	n/a	n/a	n/a	f	11	0.04000000000000001	1	f	1	1.014425135683268
13	11	n/a	n/a	n/a	f	11	0.03000000000000001	2	f	1	0.9393330060411245
13	12	n/a	n/a	n/a	f	11	0.04000000000000001	0	f	1	0.9744118272792548
13	13	n/a	n/a	n/a	f	11	0.05000000000000002	1	f	1	0.9023260627873242
13	14	n/a	n/a	n/a	j	11	0.04000000000000001	0	j	1	0.8214829233475029
13	15	n/a	n/a	n/a	f	11	0.05000000000000002	0	f	1	1.035274113994092
13	16	n/a	n/a	n/a	f	11	0.06000000000000002	1	f	1	1.010202539851889
13	17	n/a	n/a	n/a	f	11	0.05000000000000002	1	f	1	0.9841171549633145
13	18	n/a	n/a	n/a	f	11	0.04000000000000001	1	f	1	1.055070792790502
13	19	n/a	n/a	n/a	f	11	0.03000000000000001	2	f	1	0.9590444406494498
13	20	n/a	n/a	n/a	j	11	0.04000000000000001	1	j	1	0.9809699510224164
13	21	n/a	n/a	n/a	f	11	0.03000000000000001	1	f	1	0.9949107042048126
13	22	n/a	n/a	n/a	f	11	0.02000000000000001	1	f	1	1.016855601454154
13	23	n/a	n/a	n/a	f	11	0.01000000000000001	2	f	1	0.9767701630480587
13	24	n/a	n/a	n/a	f	11	0.02000000000000001	1	f	1	0.9587399554438889
13	25	n/a	n/a	n/a	f	11	0.01000000000000001	0	f	1	0.9808958254288882
13	26	n/a	n/a	n/a	j	11	0.02000000000000001	1	j	1	0.8764607741031796
13	27	n/a	n/a	n/a	f	11	0.01000000000000001	0	f	1	0.9931279825977981
13	28	n/a	n/a	n/a	f	11	0.02000000000000001	1	f	1	0.9643427135888487
13	29	n/a	n/a	n/a	f	11	0.01000000000000001	0	f	1	1.082469627028331
13	30	n/a	n/a	n/a	f	11	0.02000000000000001	2	f	1	1.065443251281977
13	31	n/a	n/a	n/a	f	11	0.03000000000000001	2	f	1	1.024320909287781
13	32	n/a	n/a	n/a	j	11	0.04000000000000001	2	j	1	0.9269024205859751
13	33	n/a	n/a	n/a	f	11	0.05000000000000002	0	f	1	0.9342191917821765
13	34	n/a	n/a	n/a	f	11	0.06000000000000002	1	f	1	1.147342110984027
13	35	n/a	n/a	n/a	f	11	0.05000000000000002	2	f	1	0.9131059271749109
13	36	n/a	n/a	n/a	f	11	0.06000000000000002	0	f	1	1.007685404038057
13	37	n/a	n/a	n/a	f	11	0.07000000000000002	1	f	1	1.153970654122531
13	38	n/a	n/a	n/a	j	11	0.06000000000000002	2	j	1	0.94994694320485
13	39	n/a	n/a	n/a	f	11	0.07000000000000002	1	f	1	0.9490474569611251
13	40	n/a	n/a	n/a	f	11	0.06000000000000002	1	f	1	1.067017851164564
13	41	n/a	n/a	n/a	f	11	0.05000000000000002	2	f	1	0.9847406656481326
13	42	n/a	n/a	n/a	f	11	0.06000000000000002	1	f	1	1.078332560835406
13	43	n/a	n/a	n/a	f	11	0.05000000000000002	2	f	1	0.9648938092868775
13	44	n/a	n/a	n/a	j	11	0.06000000000000002	1	j	1	0.8607079340144992
13	45	n/a	n/a	n/a	f	11	0.05000000000000002	0	f	1	0.9925515130162239
13	46	n/a	n/a	n/a	f	11	0.06000000000000002	1	f	1	0.9494793813209981
13	47	n/a	n/a	n/a	f	11	0.05000000000000002	1	f	1	0.9703910811804235
13	48	n/a	n/a	n/a	f	11	0.04000000000000001	1	j	0	1.170387774007395
13	49	n/a	n/a	n/a	f	11	0.03000000000000001	2	f	1	0.935326230013743
13	50	n/a	n/a	n/a	j	11	0.04000000000000001	0	j	1	0.9404092533513904
13	51	n/a	n/a	n/a	f	11	0.05000000000000002	1	f	1	1.010223352117464
13	52	n/a	n/a	n/a	f	11	0.04000000000000001	1	f	1	0.9601999453734607
13	53	n/a	n/a	n/a	f	11	0.03000000000000001	1	f	1	0.9562573162838817
13	54	n/a	n/a	n/a	f	11	0.02000000000000001	0	f	1	0.9640251139644533
13	55	n/a	n/a	n/a	f	11	0.03000000000000001	1	f	1	1.006935594603419
13	56	n/a	n/a	n/a	j	11	0.02000000000000001	2	j	1	0.9179611569270492
13	57	n/a	n/a	n/a	f	11	0.03000000000000001	0	f	1	0.9165610375348479
13	58	n/a	n/a	n/a	f	11	0.04000000000000001	0	f	1	1.066788061754778
13	59	n/a	n/a	n/a	f	11	0.05000000000000002	2	f	1	0.8587470257189125
13	60	n/a	n/a	n/a	f	11	0.06000000000000002	0	f	1	1.016617259010673
13	61	n/a	n/a	n/a	f	11	0.07000000000000002	1	f	1	0.9845767340157181
13	62	n/a	n/a	n/a	j	11	0.06000000000000002	1	j	1	1.087605963926762
13	63	n/a	n/a	n/a	f	11	0.05000000000000002	2	f	1	0.9655458298511803
13	64	n/a	n/a	n/a	f	11	0.06000000000000002	1	f	1	0.9966537973377854
13	65	n/a	n/a	n/a	f	11	0.05000000000000002	1	f	1	0.9304088486824185
13	66	n/a	n/a	n/a	f	11	0.04000000000000001	0	f	1	1.048374966252595
13	67	n/a	n/a	n/a	f	11	0.05000000000000002	2	f	1	0.9418595500756055
13	68	n/a	n/a	n/a	j	11	0.06000000000000002	1	j	1	0.932373178191483
13	69	n/a	n/a	n/a	f	11	0.05000000000000002	0	f	1	0.9452094589360058
13	70	n/a	n/a	n/a	f	11	0.06000000000000002	1	f	1	0.9249874127563089
13	71	n/a	n/a	n/a	f	11	0.05000000000000002	0	f	1	0.9159090169705451
14	0	f	1	0.5470056375488639	f	3	0.02000000000000001	2	f	1	0.4122489206492901
14	1	n/a	n/a	n/a	f	3	0.03000000000000001	1	f	1	0.3751196700613946
14	2	n/a	n/a	n/a	j	3	0.02000000000000001	1	j	1	0.3403584486804903
14	3	n/a	n/a	n/a	f	3	0.01000000000000001	0	f	1	0.4102121761534363
14	4	n/a	n/a	n/a	f	3	0.02000000000000001	2	f	1	0.3770902720279992
14	5	n/a	n/a	n/a	f	3	0.03000000000000001	1	f	1	0.3428661765065044
14	6	n/a	n/a	n/a	f	3	0.02000000000000001	0	f	1	0.411100258352235
14	7	n/a	n/a	n/a	f	3	0.03000000000000001	1	f	1	0.363103617914021
14	8	n/a	n/a	n/a	j	3	0.02000000000000001	0	j	1	0.3460954886395484
14	9	n/a	n/a	n/a	f	3	0.03000000000000001	0	f	1	0.3750332852359861
14	10	n/a	n/a	n/a	f	3	0.04000000000000001	1	f	1	0.374999928753823
14	11	n/a	n/a	n/a	f	3	0.03000000000000001	1	f	1	0.374989950330928
14	12	n/a	n/a	n/a	f	3	0.02000000000000001	1	f	1	0.3989641796797514
14	13	n/a	n/a	n/a	f	3	0.01000000000000001	2	f	1	0.3817333881743252
14	14	n/a	n/a	n/a	j	3	0.02000000000000001	1	j	1	0.3549315507989377
14	15	n/a	n/a	n/a	f	3	0.01000000000000001	0	f	1	0.360281141474843
14	16	n/a	n/a	n/a	f	3	0.02000000000000001	1	f	1	0.3968515987507999
14	17	n/a	n/a	n/a	f	3	0.01000000000000001	2	f	1	0.376823989674449
14	18	n/a	n/a	n/a	f	3	0.02000000000000001	1	f	1	0.3834174659568816
14	19	n/a	n/a	n/a	f	3	0.01000000000000001	1	f	1	0.340975972590968
14	20	n/a	n/a	n/a	j	3	1.040834085586084e-17	0	j	1	0.402763974154368
14	21	n/a	n/a	n/a	f	3	0.01000000000000001	2	f	1	0.4017575760371983
14	22	n/a	n/a	n/a	f	3	0.02000000000000001	1	f	1	0.4087809810880572
14	23	n/a	n/a	n/a	f	3	0.01000000000000001	2	f	1	0.3357615184504539
14	24	n/a	n/a	n/a	f	3	0.02000000000000001	0	f	1	0.4387228949926794
14	25	n/a	n/a	n/a	f	3	0.03000000000000001	2	f	1	0.31485266960226
14	26	n/a	n/a	n/a	j	3	0.04000000000000001	0	j	1	0.402295557083562
14	27	n/a	n/a	n/a	f	3	0.05000000000000002	1	f	1	0.3696241087745875
14	28	n/a	n/a	n/a	f	3	0.04000000000000001	1	f	1	0.3352300943806767
14	29	n/a	n/a	n/a	f	3	0.03000000000000001	0	f	1	0.3575285142287612
14	30	n/a	n/a	n/a	f	3	0.04000000000000001	1	f	1	0.4117628275416791
14	31	n/a	n/a	n/a	f	3	0.03000000000000001	1	f	1	0.3925697021186352
14	32	n/a	n/a	n/a	j	3	0.02000000000000001	1	j	1	0.3421408855356276
14	33	n/a	n/a	n/a	f	3	0.01000000000000001	0	f	1	0.3796362027060241
14	34	n/a	n/a	n/a	f	3	0.02000000000000001	1	f	1	0.4724737266078591
14	35	n/a	n/a	n/a	f	3	0.01000000000000001	2	f	1	0.34341613156721
14	36	n/a	n/a	n/a	f	3	0.02000000000000001	0	f	1	0.3737643111962825
14	37	n/a	n/a	n/a	f	3	0.03000000000000001	1	f	1	0.3774822824634612
14	38	n/a	n/a	n/a	j	3	0.02000000000000001	1	j	1	0.3660464060958475
14	39	n/a	n/a	n/a	f	3	0.01000000000000001	0	f	1	0.379506197758019
14	40	n/a	n/a	n/a	f	3	0.02000000000000001	1	f	1	0.4103923584334552
14	41	n/a	n/a	n/a	f	3	0.01000000000000001	2	f	1	0.3589437438640743
14	42	n/a	n/a	n/a	f	3	0.02000000000000001	0	f	1	0.4132025758735836
14	43	n/a	n/a	n/a	f	3	0.03000000000000001	1	f	1	0.3770614769309759
14	44	n/a	n/a	n/a	j	3	0.02000000000000001	1	j	1	0.3234016371425241
14	45	n/a	n/a	n/a	f	3	0.01000000000000001	0	f	1	0.3622115445323288
14	46	n/a	n/a	n/a	f	3	0.02000000000000001	0	f	1	0.4661573665216565
14	47	n/a	n/a	n/a	f	3	0.03000000000000001	2	f	1	0.3851990473922342
14	48	n/a	n/a	n/a	f	3	0.04000000000000001	1	f	1	0.3980347581673414
14	49	n/a	n/a	n/a	f	3	0.03000000000000001	1	f	1	0.3651503410656005
14	50	n/a	n/a	n/a	j	3	0.02000000000000001	1	j	1	0.3643115807790309
14	51	n/a	n/a	n/a	f	3	0.01000000000000001	0	f	1	0.37812261399813
14	52	n/a	n/a	n/a	f	3	0.02000000000000001	1	f	1	0.420175232924521
14	53	n/a	n/a	n/a	f	3	0.01000000000000001	2	f	1	0.328722147969529
14	54	n/a	n/a	n/a	f	3	0.02000000000000001	0	f	1	0.4070501471869648
14	55	n/a	n/a	n/a	f	3	0.03000000000000001	1	f	1	0.3820107893552631
14	56	n/a	n/a	n/a	j	3	0.02000000000000001	1	j	1	0.3241351961623877
14	57	n/a	n/a	n/a	f	3	0.01000000000000001	0	f	1	0.3949713732581586
14	58	n/a	n/a	n/a	f	3	0.02000000000000001	1	f	1	0.4009344964288175
14	59	n/a	n/a	n/a	f	3	0.01000000000000001	2	f	1	0.3734954632818699
14	60	n/a	n/a	n/a	f	3	0.02000000000000001	1	f	1	0.4040472030173987
14	61	n/a	n/a	n/a	f	3	0.01000000000000001	2	f	1	0.2988862907513976
14	62	n/a	n/a	n/a	j	3	0.02000000000000001	0	j	1	0.407245154492557
14	63	n/a	n/a	n/a	f	3	0.03000000000000001	1	f	1	0.3728702419903129
14	64	n/a	n/a	n/a	f	3	0.02000000000000001	1	f	1	0.4199956208467484
14	65	n/a	n/a	n/a	f	3	0.01000000000000001	2	f	1	0.3227670076303184
14	66	n/a	n/a	n/a	f	3	0.02000000000000001	0	f	1	0.4654583046212792
14	67	n/a	n/a	n/a	f	3	0.03000000000000001	2	f	1	0.4036780004389584
14	68	n/a	n/a	n/a	j	3	0.04000000000000001	1	j	1	0.3446879566181451
14	69	n/a	n/a	n/a	f	3	0.03000000000000001	0	f	1	0.3986748044844717
14	70	n/a	n/a	n/a	f	3	0.04000000000000001	1	f	1	0.4377139308489859
14	71	n/a	n/a	n/a	f	3	0.03000000000000001	2	f	1	0.3577317893505096
15	0	f	1	0.668351314496249	f	7	0.02000000000000001	0	f	1	0.5607975691091269
15	1	n/a	n/a	n/a	f	7	0.03000000000000001	1	f	1	0.5411177803762257
15	2	n/a	n/a	n/a	j	7	0.02000000000000001	0	j	1	0.602526030736044
15	3	n/a	n/a	n/a	f	7	0.03000000000000001	1	f	1	0.5204238961450756
15	4	n/a	n/a	n/a	f	7	0.02000000000000001	0	f	1	0.535540966084227
15	5	n/a	n/a	n/a	f	7	0.03000000000000001	0	f	1	0.6125749025959522
15	6	n/a	n/a	n/a	f	7	0.04000000000000001	1	f	1	0.6660046675242484
15	7	n/a	n/a	n/a	f	7	0.03000000000000001	2	f	1	0.4959199533332139
15	8	n/a	n/a	n/a	j	7	0.04000000000000001	0	j	1	0.5644799030851573
15	9	n/a	n/a	n/a	f	7	0.05000000000000002	1	f	1	0.5848422178532928
15	10	n/a	n/a	n/a	f	7	0.04000000000000001	1	f	1	0.5678529050201178
15	11	n/a	n/a	n/a	f	7	0.03000000000000001	1	f	1	1.045444437302649
15	12	n/a	n/a	n/a	f	7	0.02000000000000001	2	f	1	0.5642201781738549
15	13	n/a	n/a	n/a	f	7	0.03000000000000001	1	f	1	0.5389966466464102
15	14	n/a	n/a	n/a	j	7	0.02000000000000001	0	j	1	0.4981209149118513
15	15	n/a	n/a	n/a	f	7	0.03000000000000001	0	f	1	0.548309393459931
15	16	n/a	n/a	n/a	f	7	0.04000000000000001	1	f	1	0.5673608249053359
15	17	n/a	n/a	n/a	f	7	0.03000000000000001	1	f	1	0.497960974695161
15	18	n/a	n/a	n/a	f	7	0.02000000000000001	0	f	1	0.5599967271555215
15	19	n/a	n/a	n/a	f	7	0.03000000000000001	1	f	1	0.5182771033141762
15	20	n/a	n/a	n/a	j	7	0.02000000000000001	0	j	1	0.5068554817698896
15	21	n/a	n/a	n/a	f	7	0.03000000000000001	0	f	1	0.6565296994522214
15	22	n/a	n/a	n/a	f	7	0.04000000000000001	2	f	1	0.644792758859694
15	23	n/a	n/a	n/a	f	7	0.05000000000000002	2	f	1	0.6088438166771084
15	24	n/a	n/a	n/a	f	7	0.06000000000000002	1	f	1	0.566813150420785
15	25	n/a	n/a	n/a	f	7	0.05000000000000002	1	f	1	0.5795393832959235
15	26	n/a	n/a	n/a	j	7	0.04000000000000001	1	j	1	0.5456938988063484
15	27	n/a	n/a	n/a	f	7	0.03000000000000001	0	f	1	0.5686865334864706
15	28	n/a	n/a	n/a	f	7	0.04000000000000001	1	f	1	0.5655515887774527
15	29	n/a	n/a	n/a	f	7	0.03000000000000001	1	f	1	0.540680724196136
15	30	n/a	n/a	n/a	f	7	0.02000000000000001	0	f	1	0.5786045449785888
15	31	n/a	n/a	n/a	f	7	0.03000000000000001	1	f	1	0.5354816655162722
15	32	n/a	n/a	n/a	j	7	0.02000000000000001	0	j	1	0.5494677491951734
15	33	n/a	n/a	n/a	f	7	0.03000000000000001	0	f	1	0.5416688763070852
15	34	n/a	n/a	n/a	f	7	0.04000000000000001	1	f	1	0.4846232051495463
15	35	n/a	n/a	n/a	f	7	0.03000000000000001	0	f	1	0.5881333965808153
15	36	n/a	n/a	n/a	f	7	0.04000000000000001	1	f	1	0.5633685886859894
15	37	n/a	n/a	n/a	f	7	0.03000000000000001	1	f	1	0.5597549632657319
15	38	n/a	n/a	n/a	j	7	0.02000000000000001	0	j	1	0.5342337887268513
15	39	n/a	n/a	n/a	f	7	0.03000000000000001	0	f	1	0.5662372510414571
15	40	n/a	n/a	n/a	f	7	0.04000000000000001	1	f	1	0.6445073753129691
15	41	n/a	n/a	n/a	f	7	0.03000000000000001	2	f	1	0.5120525448583066
15	42	n/a	n/a	n/a	f	7	0.04000000000000001	0	f	1	0.6071471946779639
15	43	n/a	n/a	n/a	f	7	0.05000000000000002	1	f	1	0.5979567549657077
15	44	n/a	n/a	n/a	j	7	0.04000000000000001	1	j	1	0.4931619090493768
15	45	n/a	n/a	n/a	f	7	0.03000000000000001	0	f	1	0.5561022798065096
15	46	n/a	n/a	n/a	f	7	0.04000000000000001	1	f	1	0.5940146963112056
15	47	n/a	n/a	n/a	f	7	0.03000000000000001	1	f	1	0.49669000483118
15	48	n/a	n/a	n/a	f	7	0.02000000000000001	0	f	1	0.5385644373018295
15	49	n/a	n/a	n/a	f	7	0.03000000000000001	0	f	1	0.5049812432844192
15	50	n/a	n/a	n/a	j	7	0.04000000000000001	0	j	1	0.5605518140364438
15	51	n/a	n/a	n/a	f	7	0.05000000000000002	1	f	1	0.5898884637281299
15	52	n/a	n/a	n/a	f	7	0.04000000000000001	1	f	1	0.5480280013289303
15	53	n/a	n/a	n/a	f	7	0.03000000000000001	0	f	1	0.5537881341297179
15	54	n/a	n/a	n/a	f	7	0.04000000000000001	1	f	1	0.5827972053084522
15	55	n/a	n/a	n/a	f	7	0.03000000000000001	1	f	1	0.5348059819079936
15	56	n/a	n/a	n/a	j	7	0.02000000000000001	0	j	1	0.5386793320067227
15	57	n/a	n/a	n/a	f	7	0.03000000000000001	0	f	1	0.5682728553656489
15	58	n/a	n/a	n/a	f	7	0.04000000000000001	1	f	1	0.5506055778823793
15	59	n/a	n/a	n/a	f	7	0.03000000000000001	0	f	1	0.5412526321597397
15	60	n/a	n/a	n/a	f	7	0.04000000000000001	0	f	1	0.5145919183269143
15	61	n/a	n/a	n/a	f	7	0.05000000000000002	0	f	1	0.5605957193765789
15	62	n/a	n/a	n/a	j	7	0.06000000000000002	1	j	1	0.5675096462946385
15	63	n/a	n/a	n/a	f	7	0.05000000000000002	1	f	1	0.5501365908421576
15	64	n/a	n/a	n/a	f	7	0.04000000000000001	1	f	1	0.5544569753110409
15	65	n/a	n/a	n/a	f	7	0.03000000000000001	1	f	1	0.4624299868009984
15	66	n/a	n/a	n/a	f	7	0.02000000000000001	0	f	1	0.5574542174581438
15	67	n/a	n/a	n/a	f	7	0.03000000000000001	0	f	1	0.5859980077948421
15	68	n/a	n/a	n/a	j	7	0.04000000000000001	1	j	1	0.6307046099100262
15	69	n/a	n/a	n/a	f	7	0.03000000000000001	2	f	1	0.610244506271556
15	70	n/a	n/a	n/a	f	7	0.04000000000000001	1	f	1	0.5600953712128103
15	71	n/a	n/a	n/a	f	7	0.03000000000000001	1	f	1	0.5122159062884748
16	0	f	1	0.6450502029620111	f	9	0.04000000000000001	0	f	1	0.971635821973905
16	1	n/a	n/a	n/a	j	9	0.05000000000000002	1	j	1	0.9915570891462266
16	2	n/a	n/a	n/a	f	9	0.04000000000000001	1	f	1	0.9562915281858295
16	3	n/a	n/a	n/a	f	9	0.03000000000000001	1	f	1	1.0333784930408
16	4	n/a	n/a	n/a	f	9	0.02000000000000001	2	f	1	1.031387934228405
16	5	n/a	n/a	n/a	j	9	0.03000000000000001	2	j	1	1.012503285659477
16	6	n/a	n/a	n/a	f	9	0.04000000000000001	1	f	1	0.9532985626719892
16	7	n/a	n/a	n/a	f	9	0.03000000000000001	0	f	1	1.041062756674364
16	8	n/a	n/a	n/a	f	9	0.04000000000000001	2	f	1	1.143207325600088
16	9	n/a	n/a	n/a	j	9	0.05000000000000002	2	j	1	0.9012974267825484
16	10	n/a	n/a	n/a	f	9	0.06000000000000002	0	f	1	1.02507499512285
16	11	n/a	n/a	n/a	f	9	0.07000000000000002	1	f	1	0.967971449252218
16	12	n/a	n/a	n/a	f	9	0.06000000000000002	1	f	1	1.102541140979156
16	13	n/a	n/a	n/a	j	9	0.05000000000000002	2	j	1	0.9886875711381435
16	14	n/a	n/a	n/a	f	9	0.06000000000000002	1	f	1	0.9873789686243981
16	15	n/a	n/a	n/a	f	9	0.05000000000000002	1	f	1	1.032692545559257
16	16	n/a	n/a	n/a	f	9	0.04000000000000001	2	f	1	0.9412505796644837
16	17	n/a	n/a	n/a	j	9	0.05000000000000002	1	j	1	0.9466811381280422
16	18	n/a	n/a	n/a	f	9	0.04000000000000001	1	f	1	1.073601348791271
16	19	n/a	n/a	n/a	f	9	0.03000000000000001	2	f	1	0.9821910285390913
16	20	n/a	n/a	n/a	f	9	0.04000000000000001	1	f	1	0.9544854282867163
16	21	n/a	n/a	n/a	j	9	0.03000000000000001	0	j	1	0.8740545415785164
16	22	n/a	n/a	n/a	f	9	0.04000000000000001	0	f	1	1.031638250686228
16	23	n/a	n/a	n/a	f	9	0.05000000000000002	1	f	1	1.045326121384278
16	24	n/a	n/a	n/a	f	9	0.04000000000000001	2	f	1	0.8843351984396577
16	25	n/a	n/a	n/a	j	9	0.05000000000000002	0	j	1	0.9724272557068616
16	26	n/a	n/a	n/a	f	9	0.06000000000000002	1	f	1	1.04350234544836
16	27	n/a	n/a	n/a	f	9	0.05000000000000002	2	f	1	0.9866719238925725
16	28	n/a	n/a	n/a	f	9	0.06000000000000002	1	f	1	0.9595829918980598
16	29	n/a	n/a	n/a	j	9	0.05000000000000002	1	j	1	1.015030685113743
16	30	n/a	n/a	n/a	f	9	0.04000000000000001	1	f	1	0.8930737567134202
16	31	n/a	n/a	n/a	f	9	0.03000000000000001	0	f	1	0.9928448796272278
16	32	n/a	n/a	n/a	f	9	0.04000000000000001	1	f	1	1.104795416118577
16	33	n/a	n/a	n/a	j	9	0.03000000000000001	2	j	1	1.006718349410221
16	34	n/a	n/a	n/a	f	9	0.04000000000000001	1	f	1	1.012916393578053
16	35	n/a	n/a	n/a	f	9	0.03000000000000001	2	f	1	1.03576676431112
16	36	n/a	n/a	n/a	f	9	0.04000000000000001	2	f	1	0.9705567236524075
16	37	n/a	n/a	n/a	j	9	0.05000000000000002	1	j	1	1.103542977711186
16	38	n/a	n/a	n/a	f	9	0.04000000000000001	2	f	1	0.9504715246148407
16	39	n/a	n/a	n/a	f	9	0.05000000000000002	1	f	1	0.964564805617556
16	40	n/a	n/a	n/a	f	9	0.04000000000000001	1	f	1	1.001958627486601
16	41	n/a	n/a	n/a	j	9	0.03000000000000001	1	j	1	0.9602866154164076
16	42	n/a	n/a	n/a	f	9	0.02000000000000001	0	f	1	0.9732426377013326
16	43	n/a	n/a	n/a	f	9	0.03000000000000001	1	f	1	0.9333590490277857
16	44	n/a	n/a	n/a	f	9	0.02000000000000001	0	f	1	0.9322953463997692
16	45	n/a	n/a	n/a	j	9	0.03000000000000001	0	j	1	0.8876711374614388
16	46	n/a	n/a	n/a	f	9	0.04000000000000001	0	f	1	0.9830295038409531
16	47	n/a	n/a	n/a	f	9	0.05000000000000002	1	f	1	0.9419929764699191
16	48	n/a	n/a	n/a	f	9	0.04000000000000001	0	f	1	0.8669182378798723
16	49	n/a	n/a	n/a	j	9	0.05000000000000002	0	j	1	0.8488657921552658
16	50	n/a	n/a	n/a	f	9	0.06000000000000002	0	f	1	0.9983852014411241
16	51	n/a	n/a	n/a	f	9	0.07000000000000002	1	f	1	0.917894443962723
16	52	n/a	n/a	n/a	f	9	0.06000000000000002	0	f	1	0.9404762517660856
16	53	n/a	n/a	n/a	j	9	0.07000000000000002	1	j	1	0.9536067545413971
16	54	n/a	n/a	n/a	f	9	0.06000000000000002	1	f	1	1.001571463653818
16	55	n/a	n/a	n/a	f	9	0.05000000000000002	1	f	1	0.9275296374689788
16	56	n/a	n/a	n/a	f	9	0.04000000000000001	0	f	1	0.9410259218420833
16	57	n/a	n/a	n/a	j	9	0.05000000000000002	1	j	1	0.915139535907656
16	58	n/a	n/a	n/a	f	9	0.04000000000000001	0	f	1	1.010378730716184
16	59	n/a	n/a	n/a	f	9	0.05000000000000002	1	f	1	0.8722840792033821
16	60	n/a	n/a	n/a	f	9	0.04000000000000001	0	f	1	0.998250920092687
16	61	n/a	n/a	n/a	j	9	0.05000000000000002	1	j	1	0.9471914647147059
16	62	n/a	n/a	n/a	f	9	0.04000000000000001	0	f	1	1.067136452300474
16	63	n/a	n/a	n/a	f	9	0.05000000000000002	2	f	1	0.9539751017000526
16	64	n/a	n/a	n/a	f	9	0.06000000000000002	1	f	1	0.9280413894448429
16	65	n/a	n/a	n/a	j	9	0.05000000000000002	0	j	1	1.053955772193149
16	66	n/a	n/a	n/a	f	9	0.06000000000000002	2	f	1	0.9579661975149065
16	67	n/a	n/a	n/a	f	9	0.07000000000000002	1	f	1	1.077012554043904
16	68	n/a	n/a	n/a	f	9	0.06000000000000002	2	f	1	1.000792003935203
16	69	n/a	n/a	n/a	j	9	0.07000000000000002	1	j	1	0.9578595708590001
16	70	n/a	n/a	n/a	f	9	0.06000000000000002	1	f	1	0.9809055188670754
16	71	n/a	n/a	n/a	f	9	0.05000000000000002	1	f	1	1.059807136422023
17	0	j	1	0.3635261342860758	j	4	0.04000000000000001	2	j	1	0.3915581724140793
17	1	n/a	n/a	n/a	j	4	0.05000000000000002	1	j	1	0.4115515695884824
17	2	n/a	n/a	n/a	f	4	0.04000000000000001	1	f	1	0.3928294272627681
17	3	n/a	n/a	n/a	j	4	0.03000000000000001	1	j	1	0.4388591721653938
17	4	n/a	n/a	n/a	j	4	0.02000000000000001	2	j	1	0.3712081168778241
17	5	n/a	n/a	n/a	j	4	0.03000000000000001	2	f	0	0.3857418750412762
17	6	n/a	n/a	n/a	j	4	0.02000000000000001	1	j	1	0.3847263536881655
17	7	n/a	n/a	n/a	j	4	0.01000000000000001	1	j	1	0.4067180072888732
17	8	n/a	n/a	n/a	f	4	1.040834085586084e-17	2	f	1	0.4066991908475757
17	9	n/a	n/a	n/a	j	4	0.01000000000000001	2	j	1	0.3986126529052854
17	10	n/a	n/a	n/a	j	4	0.02000000000000001	1	j	1	0.421914619859308
17	11	n/a	n/a	n/a	j	4	0.01000000000000001	2	j	1	0.3086600420065224
17	12	n/a	n/a	n/a	j	4	0.02000000000000001	0	j	1	0.4566228128969669
17	13	n/a	n/a	n/a	j	4	0.03000000000000001	2	j	1	0.4233746100217104
17	14	n/a	n/a	n/a	f	4	0.04000000000000001	2	f	1	0.3577169643249363
17	15	n/a	n/a	n/a	j	4	0.05000000000000002	1	j	1	0.3886153842322528
17	16	n/a	n/a	n/a	j	4	0.04000000000000001	1	j	1	0.3636190763209015
17	17	n/a	n/a	n/a	j	4	0.03000000000000001	1	j	1	0.3781197632197291
17	18	n/a	n/a	n/a	j	4	0.02000000000000001	1	j	1	0.3975757493171841
17	19	n/a	n/a	n/a	j	4	0.01000000000000001	2	j	1	0.3796019910369068
17	20	n/a	n/a	n/a	f	4	0.02000000000000001	1	f	1	0.3854080245364457
17	21	n/a	n/a	n/a	j	4	0.01000000000000001	1	j	1	0.3603415824472904
17	22	n/a	n/a	n/a	j	4	1.040834085586084e-17	0	j	1	0.4263510396704078
17	23	n/a	n/a	n/a	j	4	0.01000000000000001	2	j	1	0.3372152363881469
17	24	n/a	n/a	n/a	j	4	0.02000000000000001	0	j	1	0.4083051513880491
17	25	n/a	n/a	n/a	j	4	0.03000000000000001	1	j	1	0.3202686884906143
17	26	n/a	n/a	n/a	f	4	0.02000000000000001	0	f	1	0.3902609734795988
17	27	n/a	n/a	n/a	j	4	0.03000000000000001	1	j	1	0.4123184848576784
17	28	n/a	n/a	n/a	j	4	0.02000000000000001	2	j	1	0.3793593719601631
17	29	n/a	n/a	n/a	j	4	0.03000000000000001	1	j	1	0.3631723269354552
17	30	n/a	n/a	n/a	j	4	0.02000000000000001	0	j	1	0.4031790778972208
17	31	n/a	n/a	n/a	j	4	0.03000000000000001	1	j	1	0.3541640650946647
17	32	n/a	n/a	n/a	f	4	0.02000000000000001	0	f	1	0.4164070843253285
17	33	n/a	n/a	n/a	j	4	0.03000000000000001	2	j	1	0.3572665085084736
17	34	n/a	n/a	n/a	j	4	0.04000000000000001	1	j	1	0.3972883699461818
17	35	n/a	n/a	n/a	j	4	0.03000000000000001	1	j	1	0.3802753938362002
17	36	n/a	n/a	n/a	j	4	0.02000000000000001	1	j	1	0.3789759143255651
17	37	n/a	n/a	n/a	j	4	0.01000000000000001	1	j	1	0.3539764704182744
17	38	n/a	n/a	n/a	f	4	1.040834085586084e-17	0	f	1	0.3849572835024446
17	39	n/a	n/a	n/a	j	4	0.01000000000000001	1	j	1	0.384479743661359
17	40	n/a	n/a	n/a	j	4	1.040834085586084e-17	2	j	1	0.3666032035835087
17	41	n/a	n/a	n/a	j	4	0.01000000000000001	0	j	1	0.3890721122734249
17	42	n/a	n/a	n/a	j	4	0.02000000000000001	1	j	1	0.3869008009787649
17	43	n/a	n/a	n/a	j	4	0.01000000000000001	1	j	1	0.3618220994248986
17	44	n/a	n/a	n/a	f	4	1.040834085586084e-17	0	f	1	0.3742894630413502
17	45	n/a	n/a	n/a	j	4	0.01000000000000001	1	j	1	0.3888756793458015
17	46	n/a	n/a	n/a	j	4	1.040834085586084e-17	2	j	1	0.3955840501002967
17	47	n/a	n/a	n/a	j	4	0.01000000000000001	2	j	1	0.3840877327602357
17	48	n/a	n/a	n/a	j	4	0.02000000000000001	1	j	1	0.4380808528512716
17	49	n/a	n/a	n/a	j	4	0.01000000000000001	2	j	1	0.3797673480585217
17	50	n/a	n/a	n/a	f	4	0.02000000000000001	1	f	1	0.4277845155447721
17	51	n/a	n/a	n/a	j	4	0.01000000000000001	2	j	1	0.4026918443851173
17	52	n/a	n/a	n/a	j	4	0.02000000000000001	1	j	1	0.3756642085500062
17	53	n/a	n/a	n/a	j	4	0.01000000000000001	1	j	1	0.3986420182045549
17	54	n/a	n/a	n/a	j	4	1.040834085586084e-17	2	j	1	0.4052591575309634
17	55	n/a	n/a	n/a	j	4	0.01000000000000001	2	j	1	0.3865829159040004
17	56	n/a	n/a	n/a	f	4	0.02000000000000001	1	f	1	0.4235630598850548
17	57	n/a	n/a	n/a	j	4	0.01000000000000001	2	j	1	0.3886943566612899
17	58	n/a	n/a	n/a	j	4	0.02000000000000001	1	j	1	0.3945186366327107
17	59	n/a	n/a	n/a	j	4	0.01000000000000001	1	j	1	0.3695094990544021
17	60	n/a	n/a	n/a	j	4	1.040834085586084e-17	0	j	1	0.3764656209386885
17	61	n/a	n/a	n/a	j	4	0.01000000000000001	1	j	1	0.3827021534088999
17	62	n/a	n/a	n/a	f	4	1.040834085586084e-17	0	f	1	0.4093936576973647
17	63	n/a	n/a	n/a	j	4	0.01000000000000001	2	j	1	0.3676968419458717
17	64	n/a	n/a	n/a	j	4	0.02000000000000001	1	j	1	0.3565460643731058
17	65	n/a	n/a	n/a	j	4	0.01000000000000001	0	j	1	0.362336702644825
17	66	n/a	n/a	n/a	j	4	0.02000000000000001	0	j	1	0.3921517475973815
17	67	n/a	n/a	n/a	j	4	0.03000000000000001	1	j	1	0.3432724419981241
17	68	n/a	n/a	n/a	f	4	0.02000000000000001	0	f	1	0.3653245363384485
17	69	n/a	n/a	n/a	j	4	0.03000000000000001	1	j	1	0.3643879871815443
17	70	n/a	n/a	n/a	j	4	0.02000000000000001	0	j	1	0.3882567302789539
17	71	n/a	n/a	n/a	j	4	0.03000000000000001	1	j	1	0.4171720040030777
18	0	j	1	0.661779505899176	j	8	0.04000000000000001	0	j	1	0.5618532893713564
18	1	n/a	n/a	n/a	j	8	0.05000000000000002	1	j	1	0.5747061059810221
18	2	n/a	n/a	n/a	f	8	0.04000000000000001	1	f	1	0.5658021906856447
18	3	n/a	n/a	n/a	j	8	0.03000000000000001	1	j	1	0.5562262975145131
18	4	n/a	n/a	n/a	j	8	0.02000000000000001	0	j	1	0.5530739619862288
18	5	n/a	n/a	n/a	j	8	0.03000000000000001	0	j	1	0.5046034876722842
18	6	n/a	n/a	n/a	j	8	0.04000000000000001	0	j	1	0.6558297825977206
18	7	n/a	n/a	n/a	j	8	0.05000000000000002	2	j	1	0.542951820185408
18	8	n/a	n/a	n/a	f	8	0.06000000000000002	1	f	1	0.5829651283565909
18	9	n/a	n/a	n/a	j	8	0.05000000000000002	1	j	1	0.5670053067151457
18	10	n/a	n/a	n/a	j	8	0.04000000000000001	1	j	1	0.5480003466363996
18	11	n/a	n/a	n/a	j	8	0.03000000000000001	0	j	1	0.5384486869443208
18	12	n/a	n/a	n/a	j	8	0.04000000000000001	0	j	1	0.5908843132201582
18	13	n/a	n/a	n/a	j	8	0.05000000000000002	1	j	1	0.5720250385347754
18	14	n/a	n/a	n/a	f	8	0.04000000000000001	1	f	1	0.6277649577241391
18	15	n/a	n/a	n/a	j	8	0.03000000000000001	2	j	1	0.5617797337472439
18	16	n/a	n/a	n/a	j	8	0.04000000000000001	1	j	1	0.4905860428698361
18	17	n/a	n/a	n/a	j	8	0.03000000000000001	0	j	1	0.57765944278799
18	18	n/a	n/a	n/a	j	8	0.04000000000000001	1	j	1	0.5685981530696154
18	19	n/a	n/a	n/a	j	8	0.03000000000000001	1	j	1	0.5896153391804546
18	20	n/a	n/a	n/a	f	8	0.02000000000000001	1	f	1	0.5877499387133867
18	21	n/a	n/a	n/a	j	8	0.01000000000000001	1	j	1	0.5615068946499377
18	22	n/a	n/a	n/a	j	8	1.040834085586084e-17	0	j	1	0.558532745577395
18	23	n/a	n/a	n/a	j	8	0.01000000000000001	0	j	1	0.5496299704536796
18	24	n/a	n/a	n/a	j	8	0.02000000000000001	0	j	1	0.5895851186942309
18	25	n/a	n/a	n/a	j	8	0.03000000000000001	1	j	1	0.5482871558051556
18	26	n/a	n/a	n/a	f	8	0.02000000000000001	0	f	1	0.6100064490456134
18	27	n/a	n/a	n/a	j	8	0.03000000000000001	1	j	1	0.5922946962527931
18	28	n/a	n/a	n/a	j	8	0.02000000000000001	1	j	1	0.6123089056927711
18	29	n/a	n/a	n/a	j	8	0.01000000000000001	2	j	1	0.5928278306964785
18	30	n/a	n/a	n/a	j	8	0.02000000000000001	1	j	1	0.5522072620224208
18	31	n/a	n/a	n/a	j	8	0.01000000000000001	0	j	1	0.5732398435939103
18	32	n/a	n/a	n/a	f	8	0.02000000000000001	1	f	1	0.5333648081868887
18	33	n/a	n/a	n/a	j	8	0.01000000000000001	0	j	1	0.555957164382562
18	34	n/a	n/a	n/a	j	8	0.02000000000000001	0	j	1	0.5150392381474376
18	35	n/a	n/a	n/a	j	8	0.03000000000000001	0	j	1	0.5701191541738808
18	36	n/a	n/a	n/a	j	8	0.04000000000000001	1	j	1	0.6410280314739794
18	37	n/a	n/a	n/a	j	8	0.03000000000000001	2	j	1	0.5276425937190652
18	38	n/a	n/a	n/a	f	8	0.04000000000000001	0	f	1	0.6274807145819068
18	39	n/a	n/a	n/a	j	8	0.05000000000000002	1	j	1	0.5765766382683069
18	40	n/a	n/a	n/a	j	8	0.04000000000000001	1	j	1	0.572925380198285
18	41	n/a	n/a	n/a	j	8	0.03000000000000001	1	j	1	0.5078584589064121
18	42	n/a	n/a	n/a	j	8	0.02000000000000001	0	j	1	0.5248095684219152
18	43	n/a	n/a	n/a	j	8	0.03000000000000001	0	j	1	0.6027367189526558
18	44	n/a	n/a	n/a	f	8	0.04000000000000001	1	f	1	0.5288018046412617
18	45	n/a	n/a	n/a	j	8	0.03000000000000001	0	j	1	0.53572513977997
18	46	n/a	n/a	n/a	j	8	0.04000000000000001	0	j	1	0.604545384645462
18	47	n/a	n/a	n/a	j	8	0.05000000000000002	1	j	1	0.5626512803137302
18	48	n/a	n/a	n/a	j	8	0.04000000000000001	1	j	1	0.5542211988940835
18	49	n/a	n/a	n/a	j	8	0.03000000000000001	0	j	1	0.640399674186483
18	50	n/a	n/a	n/a	f	8	0.04000000000000001	2	f	1	0.5735756899230182
18	51	n/a	n/a	n/a	j	8	0.05000000000000002	1	j	1	0.5086983593646437
18	52	n/a	n/a	n/a	j	8	0.04000000000000001	0	j	1	0.5486543627921492
18	53	n/a	n/a	n/a	j	8	0.05000000000000002	1	j	1	0.4804647562559694
18	54	n/a	n/a	n/a	j	8	0.04000000000000001	0	j	1	0.5491413113195449
18	55	n/a	n/a	n/a	j	8	0.05000000000000002	1	j	1	0.5565056942868978
18	56	n/a	n/a	n/a	f	8	0.04000000000000001	1	f	1	0.466387155931443
18	57	n/a	n/a	n/a	j	8	0.03000000000000001	0	j	1	0.5462666619569063
18	58	n/a	n/a	n/a	j	8	0.04000000000000001	1	j	1	0.5613195847254246
18	59	n/a	n/a	n/a	j	8	0.03000000000000001	1	j	1	0.5442863667849451
18	60	n/a	n/a	n/a	j	8	0.02000000000000001	0	j	1	0.5032412863802165
18	61	n/a	n/a	n/a	j	8	0.03000000000000001	0	j	1	0.5832348316907883
18	62	n/a	n/a	n/a	f	8	0.04000000000000001	1	f	1	0.565397635800764
18	63	n/a	n/a	n/a	j	8	0.03000000000000001	1	j	1	0.5161137748509645
18	64	n/a	n/a	n/a	j	8	0.02000000000000001	0	j	1	0.5780802483204752
18	65	n/a	n/a	n/a	j	8	0.03000000000000001	1	j	1	0.5140770303551108
18	66	n/a	n/a	n/a	j	8	0.02000000000000001	0	j	1	0.5288137786556035
18	67	n/a	n/a	n/a	j	8	0.03000000000000001	0	j	1	0.5670680284965783
18	68	n/a	n/a	n/a	f	8	0.04000000000000001	1	f	1	0.5579944793134928
18	69	n/a	n/a	n/a	j	8	0.03000000000000001	1	j	1	0.5651199496351182
18	70	n/a	n/a	n/a	j	8	0.02000000000000001	1	j	1	0.5556886014528573
18	71	n/a	n/a	n/a	j	8	0.01000000000000001	0	j	1	0.5458983143325895
19	0	j	1	0.5431476829107851	j	12	0.04000000000000001	0	j	1	1.000037918100134
19	1	n/a	n/a	n/a	j	12	0.05000000000000002	1	j	1	1.141337078297511
19	2	n/a	n/a	n/a	f	12	0.04000000000000001	2	f	1	0.9494594244752079
19	3	n/a	n/a	n/a	j	12	0.05000000000000002	1	j	1	0.9323654805775732
19	4	n/a	n/a	n/a	j	12	0.04000000000000001	0	j	1	0.9361202295403928
19	5	n/a	n/a	n/a	j	12	0.05000000000000002	1	j	1	1.045710149221122
19	6	n/a	n/a	n/a	j	12	0.04000000000000001	2	j	1	0.9732280978932977
19	7	n/a	n/a	n/a	j	12	0.05000000000000002	1	j	1	1.005109822843224
19	8	n/a	n/a	n/a	f	12	0.04000000000000001	1	f	1	0.8741854017134756
19	9	n/a	n/a	n/a	j	12	0.03000000000000001	0	j	1	1.040780508890748
19	10	n/a	n/a	n/a	j	12	0.04000000000000001	2	j	1	0.9187962110154331
19	11	n/a	n/a	n/a	j	12	0.05000000000000002	0	j	1	0.8922053461428732
19	12	n/a	n/a	n/a	j	12	0.06000000000000002	0	f	0	1.056672477163374
19	13	n/a	n/a	n/a	j	12	0.07000000000000002	2	j	1	0.9892055953387171
19	14	n/a	n/a	n/a	f	12	0.08000000000000002	1	f	1	0.9087690068408847
19	15	n/a	n/a	n/a	j	12	0.07000000000000002	0	j	1	0.9864934519864619
19	16	n/a	n/a	n/a	j	12	0.08000000000000002	1	j	1	0.9604203265625983
19	17	n/a	n/a	n/a	j	12	0.07000000000000002	1	j	1	0.9760337534826249
19	18	n/a	n/a	n/a	j	12	0.06000000000000002	1	j	1	1.022312959656119
19	19	n/a	n/a	n/a	j	12	0.05000000000000002	1	j	1	1.062297187978402
19	20	n/a	n/a	n/a	f	12	0.04000000000000001	2	f	1	0.9472174088004977
19	21	n/a	n/a	n/a	j	12	0.05000000000000002	1	j	1	1.018177889054641
19	22	n/a	n/a	n/a	j	12	0.04000000000000001	1	j	1	0.9921138866338879
19	23	n/a	n/a	n/a	j	12	0.03000000000000001	1	j	1	0.91807034984231
19	24	n/a	n/a	n/a	j	12	0.02000000000000001	0	j	1	0.9499888527207077
19	25	n/a	n/a	n/a	j	12	0.03000000000000001	0	j	1	1.004958435427397
19	26	n/a	n/a	n/a	f	12	0.04000000000000001	1	f	1	0.986525668296963
19	27	n/a	n/a	n/a	j	12	0.03000000000000001	1	j	1	1.11882740072906
19	28	n/a	n/a	n/a	j	12	0.02000000000000001	2	j	1	0.945775950094685
19	29	n/a	n/a	n/a	j	12	0.03000000000000001	0	j	1	1.039682879112661
19	30	n/a	n/a	n/a	j	12	0.04000000000000001	2	j	1	1.143639249959961
19	31	n/a	n/a	n/a	j	12	0.05000000000000002	2	j	1	0.9175623040646315
19	32	n/a	n/a	n/a	f	12	0.06000000000000002	0	f	1	0.9784893079195172
19	33	n/a	n/a	n/a	j	12	0.07000000000000002	1	j	1	0.9304487623739988
19	34	n/a	n/a	n/a	j	12	0.06000000000000002	1	j	1	0.9863737106788903
19	35	n/a	n/a	n/a	j	12	0.05000000000000002	1	j	1	0.9053509591612965
19	36	n/a	n/a	n/a	j	12	0.04000000000000001	0	j	1	1.065274188062176
19	37	n/a	n/a	n/a	j	12	0.05000000000000002	2	j	1	0.944247821578756
19	38	n/a	n/a	n/a	f	12	0.06000000000000002	1	f	1	0.9511922539677471
19	39	n/a	n/a	n/a	j	12	0.05000000000000002	1	j	1	0.9256625263951719
19	40	n/a	n/a	n/a	j	12	0.04000000000000001	0	j	1	0.9568813974037766
19	41	n/a	n/a	n/a	j	12	0.05000000000000002	1	j	1	0.9636211290489882
19	42	n/a	n/a	n/a	j	12	0.04000000000000001	1	j	1	0.9219633715692908
19	43	n/a	n/a	n/a	j	12	0.03000000000000001	0	j	1	1.024957819608971
19	44	n/a	n/a	n/a	f	12	0.04000000000000001	1	f	1	0.9627729605417699
19	45	n/a	n/a	n/a	j	12	0.03000000000000001	1	j	1	1.016753821168095
19	46	n/a	n/a	n/a	j	12	0.02000000000000001	2	j	1	0.9136436232365668
19	47	n/a	n/a	n/a	j	12	0.03000000000000001	0	j	1	1.016264021862298
19	48	n/a	n/a	n/a	j	12	0.04000000000000001	1	j	1	0.9808214146178216
19	49	n/a	n/a	n/a	j	12	0.03000000000000001	1	j	1	0.8916539654601365
19	50	n/a	n/a	n/a	f	12	0.02000000000000001	0	f	1	1.017541263718158
19	51	n/a	n/a	n/a	j	12	0.03000000000000001	2	j	1	0.9534599285107106
19	52	n/a	n/a	n/a	j	12	0.04000000000000001	1	j	1	0.9763955436646938
19	53	n/a	n/a	n/a	j	12	0.03000000000000001	1	j	1	0.9353601566981524
19	54	n/a	n/a	n/a	j	12	0.02000000000000001	0	j	1	0.9993539664428681
19	55	n/a	n/a	n/a	j	12	0.03000000000000001	1	j	1	1.7428005465772
19	56	n/a	n/a	n/a	f	12	0.02000000000000001	2	f	1	0.8830131960567087
19	57	n/a	n/a	n/a	j	12	0.03000000000000001	0	j	1	0.8910889001563191
19	58	n/a	n/a	n/a	j	12	0.04000000000000001	0	j	1	0.9226071245502681
19	59	n/a	n/a	n/a	j	12	0.05000000000000002	0	j	1	0.9289719515945762
19	60	n/a	n/a	n/a	j	12	0.06000000000000002	1	j	1	0.9928639812860638
19	61	n/a	n/a	n/a	j	12	0.05000000000000002	1	j	1	0.902931327233091
19	62	n/a	n/a	n/a	f	12	0.04000000000000001	0	f	1	0.9890177154447883
19	63	n/a	n/a	n/a	j	12	0.05000000000000002	1	j	1	0.9157838588580489
19	64	n/a	n/a	n/a	j	12	0.04000000000000001	0	j	1	0.9956702070776373
19	65	n/a	n/a	n/a	j	12	0.05000000000000002	1	j	1	0.9376839955803007
19	66	n/a	n/a	n/a	j	12	0.04000000000000001	0	j	1	0.959202955244109
19	67	n/a	n/a	n/a	j	12	0.05000000000000002	1	j	1	1.036701602628455
19	68	n/a	n/a	n/a	f	12	0.04000000000000001	2	f	1	0.8824997334741056
19	69	n/a	n/a	n/a	j	12	0.05000000000000002	0	j	1	0.9224306484684348
19	70	n/a	n/a	n/a	j	12	0.06000000000000002	0	j	1	1.065405618399382
19	71	n/a	n/a	n/a	j	12	0.07000000000000002	2	j	1	0.7922660151962191
20	0	f	1	0.3752337095793337	f	1	0.02000000000000001	2	f	1	0.4116125805303454
20	1	n/a	n/a	n/a	j	1	0.03000000000000001	1	j	1	0.4255675887688994
20	2	n/a	n/a	n/a	f	1	0.02000000000000001	2	f	1	0.4005034270230681
20	3	n/a	n/a	n/a	f	1	0.03000000000000001	1	f	1	0.4305023606866598
20	4	n/a	n/a	n/a	f	1	0.02000000000000001	2	f	1	0.3814608340617269
20	5	n/a	n/a	n/a	j	1	0.03000000000000001	1	j	1	0.3726994679309428
20	6	n/a	n/a	n/a	f	1	0.02000000000000001	1	f	1	0.347598813707009
20	7	n/a	n/a	n/a	f	1	0.01000000000000001	0	f	1	0.4484188144560903
20	8	n/a	n/a	n/a	f	1	0.02000000000000001	2	f	1	0.383390381699428
20	9	n/a	n/a	n/a	j	1	0.03000000000000001	1	j	1	0.3253702432848513
20	10	n/a	n/a	n/a	f	1	0.02000000000000001	0	f	1	0.4120701637584716
20	11	n/a	n/a	n/a	f	1	0.03000000000000001	1	f	1	0.3863283230457455
20	12	n/a	n/a	n/a	f	1	0.02000000000000001	1	f	1	0.3933004101272672
20	13	n/a	n/a	n/a	j	1	0.01000000000000001	1	j	1	0.3921486116014421
20	14	n/a	n/a	n/a	f	1	1.040834085586084e-17	2	f	1	0.3912437085527927
20	15	n/a	n/a	n/a	f	1	0.01000000000000001	1	f	1	0.4221763403620571
20	16	n/a	n/a	n/a	f	1	1.040834085586084e-17	2	f	1	0.3902056643273681
20	17	n/a	n/a	n/a	j	1	0.01000000000000001	1	j	1	0.3726923402864486
20	18	n/a	n/a	n/a	f	1	1.040834085586084e-17	0	f	1	0.3311594561673701
20	19	n/a	n/a	n/a	f	1	0.01000000000000001	0	f	1	0.4401247247587889
20	20	n/a	n/a	n/a	f	1	0.02000000000000001	2	f	1	0.3421537149697542
20	21	n/a	n/a	n/a	j	1	0.03000000000000001	0	j	1	0.3651489154435694
20	22	n/a	n/a	n/a	f	1	0.04000000000000001	1	f	1	0.4110780206974596
20	23	n/a	n/a	n/a	f	1	0.03000000000000001	1	f	1	0.3939287676475942
20	24	n/a	n/a	n/a	f	1	0.02000000000000001	1	f	1	0.28860819991678
20	25	n/a	n/a	n/a	j	1	0.01000000000000001	0	j	1	0.4230381934903562
20	26	n/a	n/a	n/a	f	1	0.02000000000000001	2	f	1	0.4140287914779037
20	27	n/a	n/a	n/a	f	1	0.03000000000000001	2	f	1	0.4131264542229474
20	28	n/a	n/a	n/a	f	1	0.04000000000000001	1	f	1	0.3799121782649308
20	29	n/a	n/a	n/a	j	1	0.03000000000000001	1	j	1	0.3676614898722619
20	30	n/a	n/a	n/a	f	1	0.02000000000000001	1	f	1	0.4280633421149105
20	31	n/a	n/a	n/a	f	1	0.01000000000000001	2	f	1	0.3788231015205383
20	32	n/a	n/a	n/a	f	1	0.02000000000000001	1	f	1	0.3218059400096536
20	33	n/a	n/a	n/a	j	1	0.01000000000000001	0	j	1	0.3894621271174401
20	34	n/a	n/a	n/a	f	1	0.02000000000000001	1	f	1	0.3365081916563213
20	35	n/a	n/a	n/a	f	1	0.01000000000000001	0	f	1	0.411832106532529
20	36	n/a	n/a	n/a	f	1	0.02000000000000001	2	f	1	0.3627418279647827
20	37	n/a	n/a	n/a	j	1	0.03000000000000001	1	j	1	0.360628106398508
20	38	n/a	n/a	n/a	f	1	0.02000000000000001	0	f	1	0.327597718918696
20	39	n/a	n/a	n/a	f	1	0.03000000000000001	0	f	1	0.4146451747510582
20	40	n/a	n/a	n/a	f	1	0.04000000000000001	1	f	1	0.3328403977211565
20	41	n/a	n/a	n/a	j	1	0.03000000000000001	0	j	1	0.3705073446035385
20	42	n/a	n/a	n/a	f	1	0.04000000000000001	1	f	1	0.3603147831745446
20	43	n/a	n/a	n/a	f	1	0.03000000000000001	1	f	1	0.3574025004636496
20	44	n/a	n/a	n/a	f	1	0.02000000000000001	0	f	1	0.3215299646835774
20	45	n/a	n/a	n/a	j	1	0.03000000000000001	0	j	1	0.423594136023894
20	46	n/a	n/a	n/a	f	1	0.04000000000000001	2	f	1	0.3647429351694882
20	47	n/a	n/a	n/a	f	1	0.05000000000000002	1	f	1	0.451662381645292
20	48	n/a	n/a	n/a	f	1	0.04000000000000001	2	f	1	0.4004911680240184
20	49	n/a	n/a	n/a	j	1	0.05000000000000002	1	j	1	0.4473935998976231
20	50	n/a	n/a	n/a	f	1	0.04000000000000001	2	f	1	0.4046376424375921
20	51	n/a	n/a	n/a	f	1	0.05000000000000002	1	f	1	0.403535736259073
20	52	n/a	n/a	n/a	f	1	0.04000000000000001	1	f	1	0.370974050834775
20	53	n/a	n/a	n/a	j	1	0.03000000000000001	1	j	1	0.3373660536017269
20	54	n/a	n/a	n/a	f	1	0.02000000000000001	0	f	1	0.3481444923672825
20	55	n/a	n/a	n/a	f	1	0.03000000000000001	0	f	1	0.3860369520261884
20	56	n/a	n/a	n/a	f	1	0.04000000000000001	1	f	1	0.3586001999210566
20	57	n/a	n/a	n/a	j	1	0.03000000000000001	1	j	1	0.3714447487145662
20	58	n/a	n/a	n/a	f	1	0.02000000000000001	1	f	1	0.4028455123770982
20	59	n/a	n/a	n/a	f	1	0.01000000000000001	2	f	1	0.4091932335868478
20	60	n/a	n/a	n/a	f	1	0.02000000000000001	2	f	1	0.3592989768367261
20	61	n/a	n/a	n/a	j	1	0.03000000000000001	1	j	1	0.3713612146675587
20	62	n/a	n/a	n/a	f	1	0.02000000000000001	1	f	1	0.4177624431904405
20	63	n/a	n/a	n/a	f	1	0.01000000000000001	2	f	1	0.3883157456293702
20	64	n/a	n/a	n/a	f	1	0.02000000000000001	1	f	1	0.3390803516376764
20	65	n/a	n/a	n/a	j	1	0.01000000000000001	0	j	1	0.3779803498182446
20	66	n/a	n/a	n/a	f	1	0.02000000000000001	1	f	1	0.3609907520003617
20	67	n/a	n/a	n/a	f	1	0.01000000000000001	0	f	1	0.416030754102394
20	68	n/a	n/a	n/a	f	1	0.02000000000000001	2	f	1	0.3750486806966364
20	69	n/a	n/a	n/a	j	1	0.03000000000000001	1	j	1	0.3561774315312505
20	70	n/a	n/a	n/a	f	1	0.02000000000000001	0	f	1	0.4099581532645971
20	71	n/a	n/a	n/a	f	1	0.03000000000000001	1	f	1	0.3769671095069498
21	0	j	1	1.35106561309658	j	10	0.06000000000000002	0	j	1	0.9593332456424832
21	1	n/a	n/a	n/a	f	10	0.07000000000000002	1	f	1	0.9042958091013134
21	2	n/a	n/a	n/a	j	10	0.06000000000000002	0	j	1	0.9173290932085365
