blockLoop_thisRepN	trialLoop_thisRepN	trigger	firstKey	readyKey_corr	readyKey_rt	targetKey	blockType	margin	outcome	trialResp_keys	trialResp_corr	trialResp_rt
0	0	52	j	1	0.06854769040364772	j	12	0.1	0	j	1	5.341549020726234
0	1	72	n/a	n/a	n/a	j	12	0.11	2	j	1	1.023932319832966
0	2	112	n/a	n/a	n/a	f	12	0.12	1	f	1	1.178694122820161
0	3	92	n/a	n/a	n/a	j	12	0.11	2	j	1	0.9874402647837996
0	4	112	n/a	n/a	n/a	j	12	0.12	1	j	1	0.8524169806623831
0	5	92	n/a	n/a	n/a	j	12	0.11	0	j	1	0.9657750491751358
0	6	72	n/a	n/a	n/a	j	12	0.12	0	f	0	0.9352980050025508
0	7	132	n/a	n/a	n/a	j	12	0.11	1	j	1	0.9214838357875124
0	8	92	n/a	n/a	n/a	f	12	0.1	1	j	0	0.9482602996286005
0	9	132	n/a	n/a	n/a	j	12	0.09000000000000001	1	f	0	2.511156194726937
0	10	132	n/a	n/a	n/a	j	12	0.08000000000000002	2	j	1	1.026085384655744
0	11	112	n/a	n/a	n/a	j	12	0.09000000000000001	2	f	0	0.90812953049317
0	12	132	n/a	n/a	n/a	j	12	0.08000000000000002	0	j	1	2.253083484247327
0	13	72	n/a	n/a	n/a	j	12	0.09000000000000001	2	j	1	1.359995757695287
0	14	112	n/a	n/a	n/a	f	12	0.1	2	f	1	0.938745702849701
0	15	112	n/a	n/a	n/a	j	12	0.11	1	j	1	0.7414283669786528
0	16	92	n/a	n/a	n/a	j	12	0.1	0	j	1	0.9050185342784971
0	17	72	n/a	n/a	n/a	j	12	0.11	0	f	0	0.7151853225659579
0	18	132	n/a	n/a	n/a	j	12	0.1	0	j	1	14.75856479059439
0	19	72	n/a	n/a	n/a	j	12	0.11	2	j	1	0.6249550257343799
0	20	112	n/a	n/a	n/a	f	12	0.12	2	j	0	0.6997925622854382
0	21	132	n/a	n/a	n/a	j	12	0.13	0	j	1	0.6858147463062778
0	22	72	n/a	n/a	n/a	j	12	0.14	0	j	1	0.6327921021729708
0	23	72	n/a	n/a	n/a	j	12	0.15	0	f	0	0.6273421564837918
0	24	132	n/a	n/a	n/a	j	12	0.16	0	j	1	0.9263903832761571
0	25	72	n/a	n/a	n/a	j	12	0.17	1	j	1	0.5611191603820771
0	26	92	n/a	n/a	n/a	f	12	0.16	1	j	0	1.068474420113489
0	27	132	n/a	n/a	n/a	j	12	0.17	1	j	1	2.286247868090868
0	28	92	n/a	n/a	n/a	j	12	0.16	2	j	1	0.7601413860684261
0	29	112	n/a	n/a	n/a	j	12	0.17	0	j	1	1.018079244880937
0	30	72	n/a	n/a	n/a	j	12	0.18	1	j	1	0.4443815327249467
0	31	92	n/a	n/a	n/a	j	12	0.17	0	j	1	0.559202442294918
0	32	72	n/a	n/a	n/a	f	12	0.18	0	f	1	0.72202198789455
0	33	72	n/a	n/a	n/a	j	12	0.1900000000000001	0	j	1	0.7331984245683998
0	34	72	n/a	n/a	n/a	j	12	0.2000000000000001	0	j	1	0.6082978527992964
0	35	72	n/a	n/a	n/a	j	12	0.2100000000000001	0	j	1	0.6925801369361579
0	36	72	n/a	n/a	n/a	j	12	0.2200000000000001	0	f	0	1.030938618816435
0	37	132	n/a	n/a	n/a	j	12	0.2300000000000001	1	j	1	0.5859221714781597
0	38	92	n/a	n/a	n/a	f	12	0.2200000000000001	1	j	0	0.6289580955635756
0	39	132	n/a	n/a	n/a	j	12	0.2300000000000001	0	j	1	1.207698917598464
0	40	72	n/a	n/a	n/a	j	12	0.2400000000000001	1	j	1	0.6987893001642078
0	41	92	n/a	n/a	n/a	j	12	0.2300000000000001	0	j	1	0.7738392350729555
0	42	72	n/a	n/a	n/a	j	12	0.2400000000000001	0	f	0	1.048896411783062
0	43	132	n/a	n/a	n/a	j	12	0.2300000000000001	1	j	1	0.6275525593664497
0	44	92	n/a	n/a	n/a	f	12	0.2200000000000001	1	j	0	0.5973805707180873
0	45	132	n/a	n/a	n/a	j	12	0.2300000000000001	0	j	1	1.112506193807349
0	46	72	n/a	n/a	n/a	j	12	0.2400000000000001	1	j	1	0.459571587969549
0	47	92	n/a	n/a	n/a	j	12	0.2300000000000001	0	j	1	0.6210454681422561
0	48	72	n/a	n/a	n/a	j	12	0.2400000000000001	0	f	0	0.7766026962781325
0	49	132	n/a	n/a	n/a	j	12	0.2500000000000001	1	j	1	0.6513782523106784
0	50	92	n/a	n/a	n/a	f	12	0.2400000000000001	1	j	0	0.7023516076151282
0	51	132	n/a	n/a	n/a	j	12	0.2500000000000001	0	j	1	1.121319447876886
0	52	72	n/a	n/a	n/a	j	12	0.2600000000000001	1	j	1	1.468271087738685
0	53	92	n/a	n/a	n/a	j	12	0.2500000000000001	2	j	1	1.440362782217562
0	54	112	n/a	n/a	n/a	j	12	0.2600000000000001	2	j	1	1.066606168751605
0	55	112	n/a	n/a	n/a	j	12	0.2700000000000001	1	j	1	1.101965527050197
0	56	92	n/a	n/a	n/a	f	12	0.2600000000000001	1	f	1	1.207590865204111
0	57	92	n/a	n/a	n/a	j	12	0.2500000000000001	1	j	1	0.7538974408525974
0	58	92	n/a	n/a	n/a	j	12	0.2400000000000001	1	f	0	0.9868632251163945
0	59	132	n/a	n/a	n/a	j	12	0.2300000000000001	1	j	1	0.773803312680684
0	60	92	n/a	n/a	n/a	j	12	0.2200000000000001	1	f	0	0.7606263388879597
0	61	132	n/a	n/a	n/a	j	12	0.2100000000000001	0	j	1	0.3542992018628865
0	62	72	n/a	n/a	n/a	f	12	0.2200000000000001	0	j	0	0.6537300309864804
0	63	132	n/a	n/a	n/a	j	12	0.2300000000000001	0	j	1	0.8955415704986081
0	64	72	n/a	n/a	n/a	j	12	0.2400000000000001	1	j	1	0.7934209498343989
0	65	92	n/a	n/a	n/a	j	12	0.2300000000000001	1	j	1	0.580628460040316
0	66	92	n/a	n/a	n/a	j	12	0.2200000000000001	0	j	1	1.071477078949101
0	67	72	n/a	n/a	n/a	j	12	0.2300000000000001	1	j	1	0.6504588092211634
0	68	92	n/a	n/a	n/a	f	12	0.2200000000000001	1	j	0	0.7013657365459949
0	69	132	n/a	n/a	n/a	j	12	0.2300000000000001	0	j	1	0.8553477947134525
0	70	72	n/a	n/a	n/a	j	12	0.2400000000000001	1	j	1	0.6504114827839658
0	71	92	n/a	n/a	n/a	j	12	0.2300000000000001	0	j	1	0.7973781188484281
1	0	68	j	1	0.05491740978322923	j	8	0.1	2	j	1	0.7362757793162018
1	1	108	n/a	n/a	n/a	j	8	0.11	2	j	1	0.5452756589511409
1	2	108	n/a	n/a	n/a	f	8	0.12	2	j	0	0.5801654598908499
1	3	128	n/a	n/a	n/a	j	8	0.11	1	j	1	0.6226440160535276
1	4	88	n/a	n/a	n/a	j	8	0.1	1	j	1	0.5840727365575731
1	5	88	n/a	n/a	n/a	j	8	0.09000000000000001	1	j	1	0.6267271988326684
1	6	88	n/a	n/a	n/a	j	8	0.08000000000000002	1	f	0	0.5488040397176519
1	7	128	n/a	n/a	n/a	j	8	0.07000000000000002	1	j	1	0.5601991470903158
1	8	88	n/a	n/a	n/a	f	8	0.06000000000000002	1	j	0	0.6348362592980266
1	9	128	n/a	n/a	n/a	j	8	0.05000000000000002	1	j	1	0.6138182177674025
1	10	88	n/a	n/a	n/a	j	8	0.04000000000000001	1	j	1	0.5772129783872515
1	11	88	n/a	n/a	n/a	j	8	0.03000000000000001	1	j	1	0.5714442925527692
1	12	88	n/a	n/a	n/a	j	8	0.02000000000000001	1	j	1	0.6224743825150654
1	13	88	n/a	n/a	n/a	j	8	0.01000000000000001	1	f	0	0.6018919715425
1	14	128	n/a	n/a	n/a	f	8	0.02000000000000001	1	j	0	0.5887862723320723
1	15	128	n/a	n/a	n/a	j	8	0.01000000000000001	1	j	1	0.6479966974584386
1	16	88	n/a	n/a	n/a	j	8	1.040834085586084e-17	2	j	1	0.6331185399321839
1	17	108	n/a	n/a	n/a	j	8	0.01000000000000001	2	j	1	0.6357283329125494
1	18	108	n/a	n/a	n/a	j	8	0.02000000000000001	2	f	0	0.6867532910546288
1	19	128	n/a	n/a	n/a	j	8	0.03000000000000001	2	j	1	0.5685781959909946
1	20	108	n/a	n/a	n/a	f	8	0.04000000000000001	2	j	0	0.6196473443415016
1	21	128	n/a	n/a	n/a	j	8	0.03000000000000001	1	j	1	0.7180673847906291
1	22	88	n/a	n/a	n/a	j	8	0.02000000000000001	2	j	1	0.5935938906623051
1	23	108	n/a	n/a	n/a	j	8	0.03000000000000001	1	j	1	0.6205291545484215
1	24	88	n/a	n/a	n/a	j	8	0.02000000000000001	1	f	0	0.6792053047101945
1	25	128	n/a	n/a	n/a	j	8	0.03000000000000001	2	j	1	0.5464528313605115
1	26	108	n/a	n/a	n/a	f	8	0.04000000000000001	2	j	0	0.6671131310286
1	27	128	n/a	n/a	n/a	j	8	0.05000000000000002	2	j	1	0.6703601195476949
1	28	108	n/a	n/a	n/a	j	8	0.06000000000000002	2	j	1	0.6014859911520034
1	29	108	n/a	n/a	n/a	j	8	0.07000000000000002	1	j	1	0.6038725518155843
1	30	88	n/a	n/a	n/a	j	8	0.06000000000000002	1	j	1	0.9108727497514337
1	31	88	n/a	n/a	n/a	j	8	0.05000000000000002	1	f	0	0.664187734015286
1	32	128	n/a	n/a	n/a	f	8	0.06000000000000002	1	j	0	0.5471504676388577
1	33	128	n/a	n/a	n/a	j	8	0.07000000000000002	1	j	1	0.6941173888044432
1	34	88	n/a	n/a	n/a	j	8	0.06000000000000002	2	j	1	0.5990908774547279
1	35	108	n/a	n/a	n/a	j	8	0.07000000000000002	1	j	1	0.5856424897210672
1	36	88	n/a	n/a	n/a	j	8	0.06000000000000002	1	j	1	0.9411527905613184
1	37	88	n/a	n/a	n/a	j	8	0.05000000000000002	2	j	1	0.8616248113103211
1	38	108	n/a	n/a	n/a	f	8	0.06000000000000002	2	f	1	0.9530171703081578
1	39	108	n/a	n/a	n/a	j	8	0.07000000000000002	2	j	1	0.6918882025638595
1	40	108	n/a	n/a	n/a	j	8	0.08000000000000002	2	j	1	1.230834956979379
1	41	108	n/a	n/a	n/a	j	8	0.09000000000000001	2	j	1	0.4964496666798368
1	42	108	n/a	n/a	n/a	j	8	0.1	1	j	1	1.082254662644118
1	43	88	n/a	n/a	n/a	j	8	0.09000000000000001	2	j	1	0.5177656364394352
1	44	108	n/a	n/a	n/a	f	8	0.1	2	j	0	0.7273222566582263
1	45	128	n/a	n/a	n/a	j	8	0.09000000000000001	2	f	0	0.2264960408210754
1	46	128	n/a	n/a	n/a	j	8	0.1	0	j	1	0.5975852715782821
1	47	68	n/a	n/a	n/a	j	8	0.11	1	j	1	0.6554380569141358
1	48	88	n/a	n/a	n/a	j	8	0.1	1	j	1	0.9376184229040518
1	49	88	n/a	n/a	n/a	j	8	0.09000000000000001	2	j	1	0.5804793534334749
1	50	108	n/a	n/a	n/a	f	8	0.1	2	j	0	0.6071537520037964
1	51	128	n/a	n/a	n/a	j	8	0.09000000000000001	1	j	1	0.6890965168131515
1	52	88	n/a	n/a	n/a	j	8	0.08000000000000002	2	j	1	0.6119750550715253
1	53	108	n/a	n/a	n/a	j	8	0.09000000000000001	1	j	1	0.7993564183125272
1	54	88	n/a	n/a	n/a	j	8	0.08000000000000002	1	f	0	0.746246533934027
1	55	128	n/a	n/a	n/a	j	8	0.09000000000000001	2	j	1	0.5812294478528202
1	56	108	n/a	n/a	n/a	f	8	0.1	2	j	0	0.6322410063585266
1	57	128	n/a	n/a	n/a	j	8	0.09000000000000001	1	j	1	0.8187211729818955
1	58	88	n/a	n/a	n/a	j	8	0.08000000000000002	2	j	1	0.5989768380532041
1	59	108	n/a	n/a	n/a	j	8	0.09000000000000001	1	j	1	0.5860356407938525
1	60	88	n/a	n/a	n/a	j	8	0.08000000000000002	1	j	1	0.7971112665254623
1	61	88	n/a	n/a	n/a	j	8	0.07000000000000002	2	j	1	0.7189135574735701
1	62	108	n/a	n/a	n/a	f	8	0.08000000000000002	2	f	1	0.9699260853230953
1	63	108	n/a	n/a	n/a	j	8	0.09000000000000001	2	j	1	0.63665689912159
1	64	108	n/a	n/a	n/a	j	8	0.1	1	j	1	0.5599645109614357
1	65	88	n/a	n/a	n/a	j	8	0.09000000000000001	1	j	1	0.6024912488646805
1	66	88	n/a	n/a	n/a	j	8	0.08000000000000002	1	j	1	0.8597060975152999
1	67	88	n/a	n/a	n/a	j	8	0.07000000000000002	2	j	1	0.6705950407776982
1	68	108	n/a	n/a	n/a	f	8	0.08000000000000002	2	f	1	0.8365301443263888
1	69	108	n/a	n/a	n/a	j	8	0.09000000000000001	2	j	1	0.6717839021002874
1	70	108	n/a	n/a	n/a	j	8	0.1	1	j	1	0.5705659036757424
1	71	88	n/a	n/a	n/a	j	8	0.09000000000000001	1	j	1	0.9172338703647256
2	0	81	f	1	0.08478063647635281	f	1	0.1	2	f	1	0.6218599948333576
2	1	101	n/a	n/a	n/a	j	1	0.11	2	f	0	0.431206269422546
2	2	121	n/a	n/a	n/a	f	1	0.12	2	j	0	0.4987273197621107
2	3	121	n/a	n/a	n/a	f	1	0.11	1	f	1	0.5810127729782835
2	4	81	n/a	n/a	n/a	f	1	0.1	2	f	1	0.6077898070216179
2	5	101	n/a	n/a	n/a	j	1	0.11	2	j	1	0.8426674626534805
2	6	101	n/a	n/a	n/a	f	1	0.12	2	f	1	0.5815481882309541
2	7	101	n/a	n/a	n/a	f	1	0.13	2	f	1	0.5860433384077623
2	8	101	n/a	n/a	n/a	f	1	0.14	2	j	0	0.684640139923431
2	9	121	n/a	n/a	n/a	j	1	0.15	2	f	0	0.6159946606494486
2	10	121	n/a	n/a	n/a	f	1	0.16	2	f	1	0.6697628379333764
2	11	101	n/a	n/a	n/a	f	1	0.17	2	f	1	0.5609298549825326
2	12	101	n/a	n/a	n/a	f	1	0.18	1	f	1	0.6357360305264592
2	13	81	n/a	n/a	n/a	j	1	0.17	2	j	1	0.6398668247275054
2	14	101	n/a	n/a	n/a	f	1	0.18	2	f	1	0.618676298414357
2	15	101	n/a	n/a	n/a	f	1	0.1900000000000001	2	f	1	0.6216159504838288
2	16	101	n/a	n/a	n/a	f	1	0.2000000000000001	2	f	1	0.6210189539706334
2	17	101	n/a	n/a	n/a	j	1	0.2100000000000001	2	j	1	0.5974735128693283
2	18	101	n/a	n/a	n/a	f	1	0.2200000000000001	1	f	1	0.6256287137512118
2	19	81	n/a	n/a	n/a	f	1	0.2100000000000001	2	f	1	0.636400880641304
2	20	101	n/a	n/a	n/a	f	1	0.2200000000000001	2	f	1	0.6384652798296884
2	21	101	n/a	n/a	n/a	j	1	0.2300000000000001	2	j	1	0.6114231039537117
2	22	101	n/a	n/a	n/a	f	1	0.2400000000000001	1	f	1	0.6623790682060644
2	23	81	n/a	n/a	n/a	f	1	0.2300000000000001	2	f	1	0.6015053777955472
2	24	101	n/a	n/a	n/a	f	1	0.2400000000000001	1	f	1	0.6918745178263634
2	25	81	n/a	n/a	n/a	j	1	0.2300000000000001	2	j	1	0.599246256169863
2	26	101	n/a	n/a	n/a	f	1	0.2400000000000001	1	f	1	0.626131912926212
2	27	81	n/a	n/a	n/a	f	1	0.2300000000000001	2	f	1	0.6060968913370743
2	28	101	n/a	n/a	n/a	f	1	0.2400000000000001	1	f	1	0.648086788598448
2	29	81	n/a	n/a	n/a	j	1	0.2300000000000001	2	j	1	0.59602293104399
2	30	101	n/a	n/a	n/a	f	1	0.2400000000000001	1	f	1	0.6231169948587194
2	31	81	n/a	n/a	n/a	f	1	0.2300000000000001	2	f	1	0.6179022556170821
2	32	101	n/a	n/a	n/a	f	1	0.2400000000000001	1	f	1	0.6759226788999513
2	33	81	n/a	n/a	n/a	j	1	0.2300000000000001	2	j	1	0.5600035694660619
2	34	101	n/a	n/a	n/a	f	1	0.2400000000000001	1	f	1	0.6257986326236278
2	35	81	n/a	n/a	n/a	f	1	0.2300000000000001	2	f	1	0.627823973307386
2	36	101	n/a	n/a	n/a	f	1	0.2400000000000001	2	f	1	0.6249966500326991
2	37	101	n/a	n/a	n/a	j	1	0.2500000000000001	1	j	1	0.5888889079215005
2	38	81	n/a	n/a	n/a	f	1	0.2400000000000001	1	f	1	0.6399292612913996
2	39	81	n/a	n/a	n/a	f	1	0.2300000000000001	2	f	1	0.6507547416258603
2	40	101	n/a	n/a	n/a	f	1	0.2400000000000001	2	f	1	0.6847265247488394
2	41	101	n/a	n/a	n/a	j	1	0.2500000000000001	2	j	1	0.5587428632425144
2	42	101	n/a	n/a	n/a	f	1	0.2600000000000001	1	f	1	0.6356530669145286
2	43	81	n/a	n/a	n/a	f	1	0.2500000000000001	1	f	1	0.6214685544837266
2	44	81	n/a	n/a	n/a	f	1	0.2400000000000001	1	f	1	0.6491122883744538
2	45	81	n/a	n/a	n/a	j	1	0.2300000000000001	2	j	1	0.5960357604781166
2	46	101	n/a	n/a	n/a	f	1	0.2400000000000001	1	f	1	0.6384476037928835
2	47	81	n/a	n/a	n/a	f	1	0.2300000000000001	2	f	1	0.6194597494322807
2	48	101	n/a	n/a	n/a	f	1	0.2400000000000001	1	f	1	0.7181874113157392
2	49	81	n/a	n/a	n/a	j	1	0.2300000000000001	2	j	1	0.5763454232364893
2	50	101	n/a	n/a	n/a	f	1	0.2400000000000001	1	f	1	0.6433644148055464
2	51	81	n/a	n/a	n/a	f	1	0.2300000000000001	2	f	1	0.5981663026614115
2	52	101	n/a	n/a	n/a	f	1	0.2400000000000001	1	f	1	1.119328033877537
2	53	81	n/a	n/a	n/a	j	1	0.2300000000000001	2	j	1	0.6170201604254544
2	54	101	n/a	n/a	n/a	f	1	0.2400000000000001	1	f	1	0.558015861781314
2	55	81	n/a	n/a	n/a	f	1	0.2300000000000001	1	f	1	0.5840348185738549
2	56	81	n/a	n/a	n/a	f	1	0.2200000000000001	1	f	1	0.6510138963349164
2	57	81	n/a	n/a	n/a	j	1	0.2100000000000001	2	j	1	0.5420283855637535
2	58	101	n/a	n/a	n/a	f	1	0.2200000000000001	1	f	1	0.5919055364793167
2	59	81	n/a	n/a	n/a	f	1	0.2100000000000001	1	f	1	0.517003282555379
2	60	81	n/a	n/a	n/a	f	1	0.2000000000000001	1	f	1	0.5361091677332297
2	61	81	n/a	n/a	n/a	j	1	0.1900000000000001	1	j	1	0.5219249404035509
2	62	81	n/a	n/a	n/a	f	1	0.18	1	f	1	0.5328017384745181
2	63	81	n/a	n/a	n/a	f	1	0.17	1	f	1	0.5115205508191139
2	64	81	n/a	n/a	n/a	f	1	0.16	1	f	1	0.5627693112473935
2	65	81	n/a	n/a	n/a	j	1	0.15	2	j	1	0.4938182062469423
2	66	101	n/a	n/a	n/a	f	1	0.16	1	f	1	0.4986454963218421
2	67	81	n/a	n/a	n/a	f	1	0.15	1	f	1	0.4686707961373031
2	68	81	n/a	n/a	n/a	f	1	0.14	1	f	1	0.4393392782658339
2	69	81	n/a	n/a	n/a	j	1	0.13	1	j	1	0.4746014177799225
2	70	81	n/a	n/a	n/a	f	1	0.12	1	f	1	0.4782230257987976
2	71	81	n/a	n/a	n/a	f	1	0.11	1	f	1	0.4496273475233465
3	0	87	f	1	0.01440717442892492	f	7	0.1	0	f	1	0.6957615525461733
3	1	67	n/a	n/a	n/a	f	7	0.11	1	f	1	0.5605566607555375
3	2	87	n/a	n/a	n/a	j	7	0.1	1	f	0	0.5556261650053784
3	3	127	n/a	n/a	n/a	f	7	0.09000000000000001	1	f	1	0.7985589974559844
3	4	87	n/a	n/a	n/a	f	7	0.08000000000000002	2	f	1	0.512152329320088
3	5	107	n/a	n/a	n/a	f	7	0.09000000000000001	1	f	1	0.6350412452593446
3	6	87	n/a	n/a	n/a	f	7	0.08000000000000002	1	f	1	0.6063891174271703
3	7	87	n/a	n/a	n/a	f	7	0.07000000000000002	1	f	1	0.6244025046471506
3	8	87	n/a	n/a	n/a	j	7	0.06000000000000002	1	j	1	0.4994443426840007
3	9	87	n/a	n/a	n/a	f	7	0.05000000000000002	0	f	1	0.5983749948209152
3	10	67	n/a	n/a	n/a	f	7	0.06000000000000002	1	f	1	0.5535255582071841
3	11	87	n/a	n/a	n/a	f	7	0.05000000000000002	1	f	1	0.6123818907653913
3	12	87	n/a	n/a	n/a	f	7	0.04000000000000001	1	f	1	0.6059677416924387
3	13	87	n/a	n/a	n/a	f	7	0.03000000000000001	1	f	1	0.6283209001412615
3	14	87	n/a	n/a	n/a	j	7	0.02000000000000001	2	j	1	0.5111961085349321
3	15	107	n/a	n/a	n/a	f	7	0.03000000000000001	0	f	1	0.5299404885154217
3	16	67	n/a	n/a	n/a	f	7	0.04000000000000001	0	f	1	0.5332875464810058
3	17	67	n/a	n/a	n/a	f	7	0.05000000000000002	0	f	1	0.5042017836822197
3	18	67	n/a	n/a	n/a	f	7	0.06000000000000002	0	f	1	0.5726143374340609
3	19	67	n/a	n/a	n/a	f	7	0.07000000000000002	1	f	1	0.623137807007879
3	20	87	n/a	n/a	n/a	j	7	0.06000000000000002	1	j	1	0.5061313312035054
3	21	87	n/a	n/a	n/a	f	7	0.05000000000000002	0	f	1	0.5258732713991776
3	22	67	n/a	n/a	n/a	f	7	0.06000000000000002	1	f	1	0.5690985011169687
3	23	87	n/a	n/a	n/a	f	7	0.05000000000000002	1	f	1	0.5398927116766572
3	24	87	n/a	n/a	n/a	f	7	0.04000000000000001	0	f	1	0.5665682506514713
3	25	67	n/a	n/a	n/a	f	7	0.05000000000000002	1	f	1	0.6335803997935727
3	26	87	n/a	n/a	n/a	j	7	0.04000000000000001	2	j	1	0.484830186702311
3	27	107	n/a	n/a	n/a	f	7	0.05000000000000002	0	f	1	0.5627043087733909
3	28	67	n/a	n/a	n/a	f	7	0.06000000000000002	1	f	1	0.525400007609278
3	29	87	n/a	n/a	n/a	f	7	0.05000000000000002	0	f	1	0.5128206005319953
3	30	67	n/a	n/a	n/a	f	7	0.06000000000000002	0	f	1	0.5718745064223185
3	31	67	n/a	n/a	n/a	f	7	0.07000000000000002	1	f	1	0.5746439545182511
3	32	87	n/a	n/a	n/a	j	7	0.06000000000000002	1	j	1	0.479853504919447
3	33	87	n/a	n/a	n/a	f	7	0.05000000000000002	0	f	1	0.5303076955024153
3	34	67	n/a	n/a	n/a	f	7	0.06000000000000002	1	f	1	0.5093726177001372
3	35	87	n/a	n/a	n/a	f	7	0.05000000000000002	0	f	1	0.5126974378945306
3	36	67	n/a	n/a	n/a	f	7	0.06000000000000002	0	f	1	0.5532458764500916
3	37	67	n/a	n/a	n/a	f	7	0.07000000000000002	1	f	1	0.5414564776001498
3	38	87	n/a	n/a	n/a	j	7	0.06000000000000002	1	j	1	0.4779778409283608
3	39	87	n/a	n/a	n/a	f	7	0.05000000000000002	0	f	1	0.5145457324106246
3	40	67	n/a	n/a	n/a	f	7	0.06000000000000002	0	f	1	0.5573544328799471
3	41	67	n/a	n/a	n/a	f	7	0.07000000000000002	1	f	1	0.5294737820513546
3	42	87	n/a	n/a	n/a	f	7	0.06000000000000002	1	f	1	0.5553379302145913
3	43	87	n/a	n/a	n/a	f	7	0.05000000000000002	1	f	1	0.5743072530021891
3	44	87	n/a	n/a	n/a	j	7	0.04000000000000001	1	j	1	0.4893293282948434
3	45	87	n/a	n/a	n/a	f	7	0.03000000000000001	0	f	1	0.5473774061538279
3	46	67	n/a	n/a	n/a	f	7	0.04000000000000001	0	f	1	0.5182121008401737
3	47	67	n/a	n/a	n/a	f	7	0.05000000000000002	0	f	1	0.5848482048604637
3	48	67	n/a	n/a	n/a	f	7	0.06000000000000002	1	f	1	0.5612411826150492
3	49	87	n/a	n/a	n/a	f	7	0.05000000000000002	1	f	1	0.5785207258304581
3	50	87	n/a	n/a	n/a	j	7	0.04000000000000001	1	j	1	0.5169958701590076
3	51	87	n/a	n/a	n/a	f	7	0.03000000000000001	0	f	1	0.568164802971296
3	52	67	n/a	n/a	n/a	f	7	0.04000000000000001	1	f	1	0.5389327845769003
3	53	87	n/a	n/a	n/a	f	7	0.03000000000000001	0	f	1	0.6299776083324105
3	54	67	n/a	n/a	n/a	f	7	0.04000000000000001	2	f	1	0.5841625427128747
3	55	107	n/a	n/a	n/a	f	7	0.05000000000000002	1	f	1	0.5470090586459264
3	56	87	n/a	n/a	n/a	j	7	0.04000000000000001	0	j	1	0.5249022253556177
3	57	67	n/a	n/a	n/a	f	7	0.05000000000000002	0	f	1	0.5599856082117185
3	58	67	n/a	n/a	n/a	f	7	0.06000000000000002	1	f	1	0.5387084119720384
3	59	87	n/a	n/a	n/a	f	7	0.05000000000000002	0	f	1	0.5326885542599484
3	60	67	n/a	n/a	n/a	f	7	0.06000000000000002	1	f	1	0.5424751351820305
3	61	87	n/a	n/a	n/a	f	7	0.05000000000000002	1	f	1	0.5841896270867437
3	62	87	n/a	n/a	n/a	j	7	0.04000000000000001	1	j	1	0.461640833877027
3	63	87	n/a	n/a	n/a	f	7	0.03000000000000001	0	f	1	0.4814956730697304
3	64	67	n/a	n/a	n/a	f	7	0.04000000000000001	0	f	1	0.8615800508996472
3	65	67	n/a	n/a	n/a	f	7	0.05000000000000002	2	f	1	0.4976376726990566
3	66	107	n/a	n/a	n/a	f	7	0.06000000000000002	2	j	0	0.5804368737153709
3	67	127	n/a	n/a	n/a	f	7	0.07000000000000002	1	f	1	0.5125129790976644
3	68	87	n/a	n/a	n/a	j	7	0.06000000000000002	1	f	0	0.5314731787657365
3	69	127	n/a	n/a	n/a	f	7	0.07000000000000002	1	f	1	0.7026107622077689
3	70	87	n/a	n/a	n/a	f	7	0.06000000000000002	2	f	1	0.4630597697105259
3	71	107	n/a	n/a	n/a	f	7	0.07000000000000002	0	f	1	0.4962104689329863
4	0	65	f	1	0.655517884530127	f	5	0.1	1	f	1	0.6002107448875904
4	1	85	n/a	n/a	n/a	j	5	0.09000000000000001	1	f	0	0.6020938213914633
4	2	125	n/a	n/a	n/a	f	5	0.08000000000000002	1	f	1	0.5960012635914609
4	3	85	n/a	n/a	n/a	f	5	0.07000000000000002	1	f	1	0.6390773865859956
4	4	85	n/a	n/a	n/a	f	5	0.06000000000000002	1	f	1	0.586973330238834
4	5	85	n/a	n/a	n/a	j	5	0.05000000000000002	1	j	1	0.4855942510766909
4	6	85	n/a	n/a	n/a	f	5	0.04000000000000001	0	f	1	0.5610048358794302
4	7	65	n/a	n/a	n/a	f	5	0.05000000000000002	1	f	1	0.5555671495385468
4	8	85	n/a	n/a	n/a	f	5	0.04000000000000001	1	f	1	0.5909840977983549
4	9	85	n/a	n/a	n/a	j	5	0.03000000000000001	1	j	1	0.5537465097149834
4	10	85	n/a	n/a	n/a	f	5	0.02000000000000001	0	f	1	0.5243665251182392
4	11	65	n/a	n/a	n/a	f	5	0.03000000000000001	0	f	1	0.5273577800253406
4	12	65	n/a	n/a	n/a	f	5	0.04000000000000001	0	f	1	0.6107260378776118
4	13	65	n/a	n/a	n/a	j	5	0.05000000000000002	1	j	1	0.5647550232242793
4	14	85	n/a	n/a	n/a	f	5	0.04000000000000001	1	f	1	0.5359264194266871
4	15	85	n/a	n/a	n/a	f	5	0.03000000000000001	0	f	1	0.5781911518424749
4	16	65	n/a	n/a	n/a	f	5	0.04000000000000001	1	f	1	0.5975299624260515
4	17	85	n/a	n/a	n/a	j	5	0.03000000000000001	1	j	1	0.5367329635191709
4	18	85	n/a	n/a	n/a	f	5	0.02000000000000001	0	f	1	0.5872424632543698
4	19	65	n/a	n/a	n/a	f	5	0.03000000000000001	1	f	1	0.5740751827834174
4	20	85	n/a	n/a	n/a	f	5	0.02000000000000001	1	f	1	0.5934407927561551
4	21	85	n/a	n/a	n/a	j	5	0.01000000000000001	1	j	1	0.558471164200455
4	22	85	n/a	n/a	n/a	f	5	1.040834085586084e-17	0	f	1	0.5682491920888424
4	23	65	n/a	n/a	n/a	f	5	0.01000000000000001	0	f	1	0.5884267630754039
4	24	65	n/a	n/a	n/a	f	5	0.02000000000000001	1	f	1	0.5902873167069629
4	25	85	n/a	n/a	n/a	j	5	0.01000000000000001	1	j	1	0.5610333457589149
4	26	85	n/a	n/a	n/a	f	5	1.040834085586084e-17	0	f	1	0.5871928561246023
4	27	65	n/a	n/a	n/a	f	5	0.01000000000000001	1	f	1	0.6046229313360527
4	28	85	n/a	n/a	n/a	f	5	1.040834085586084e-17	2	f	1	0.5993027057265863
4	29	105	n/a	n/a	n/a	j	5	0.01000000000000001	2	j	1	0.5441480939043686
4	30	105	n/a	n/a	n/a	f	5	0.02000000000000001	0	f	1	0.6269923405488953
4	31	65	n/a	n/a	n/a	f	5	0.03000000000000001	2	f	1	0.5902091996977106
4	32	105	n/a	n/a	n/a	f	5	0.04000000000000001	1	f	1	0.561117164674215
4	33	85	n/a	n/a	n/a	j	5	0.03000000000000001	1	f	0	0.6530135781504214
4	34	125	n/a	n/a	n/a	f	5	0.02000000000000001	2	f	1	0.6081986385397613
4	35	105	n/a	n/a	n/a	f	5	0.03000000000000001	1	f	1	0.537706860457547
4	36	85	n/a	n/a	n/a	f	5	0.02000000000000001	0	f	1	0.5658589252270758
4	37	65	n/a	n/a	n/a	j	5	0.03000000000000001	1	j	1	0.4877558689331636
4	38	85	n/a	n/a	n/a	f	5	0.02000000000000001	0	f	1	0.506732604233548
4	39	65	n/a	n/a	n/a	f	5	0.03000000000000001	0	f	1	0.4842531470349059
4	40	65	n/a	n/a	n/a	f	5	0.04000000000000001	0	f	1	0.5361151547404006
4	41	65	n/a	n/a	n/a	j	5	0.05000000000000002	0	j	1	0.5213416285114363
4	42	65	n/a	n/a	n/a	f	5	0.06000000000000002	0	f	1	0.5243662400171161
4	43	65	n/a	n/a	n/a	f	5	0.07000000000000002	1	f	1	0.5267419669544324
4	44	85	n/a	n/a	n/a	f	5	0.06000000000000002	1	f	1	0.5544276103610173
4	45	85	n/a	n/a	n/a	j	5	0.05000000000000002	1	j	1	1.365747337578796
4	46	85	n/a	n/a	n/a	f	5	0.04000000000000001	2	f	1	0.5126763406442478
4	47	105	n/a	n/a	n/a	f	5	0.05000000000000002	0	f	1	0.5075325910001993
4	48	65	n/a	n/a	n/a	f	5	0.06000000000000002	0	f	1	0.5686660063220188
4	49	65	n/a	n/a	n/a	j	5	0.07000000000000002	1	j	1	0.4355155352968723
4	50	85	n/a	n/a	n/a	f	5	0.06000000000000002	0	f	1	0.5184244993142784
4	51	65	n/a	n/a	n/a	f	5	0.07000000000000002	1	f	1	0.4961169565794989
4	52	85	n/a	n/a	n/a	f	5	0.06000000000000002	0	f	1	0.5792688246583566
4	53	65	n/a	n/a	n/a	j	5	0.07000000000000002	1	j	1	0.5008655594429001
4	54	85	n/a	n/a	n/a	f	5	0.06000000000000002	0	f	1	0.4884708962636068
4	55	65	n/a	n/a	n/a	f	5	0.07000000000000002	0	f	1	0.5310218676459044
4	56	65	n/a	n/a	n/a	f	5	0.08000000000000002	1	f	1	0.5259930128231645
4	57	85	n/a	n/a	n/a	j	5	0.07000000000000002	1	j	1	0.48070709023159
4	58	85	n/a	n/a	n/a	f	5	0.06000000000000002	0	f	1	0.491773193818517
4	59	65	n/a	n/a	n/a	f	5	0.07000000000000002	0	f	1	0.5363132982747629
4	60	65	n/a	n/a	n/a	f	5	0.08000000000000002	1	f	1	0.563118557096459
4	61	85	n/a	n/a	n/a	j	5	0.07000000000000002	1	j	1	0.4328795133624226
4	62	85	n/a	n/a	n/a	f	5	0.06000000000000002	0	f	1	0.5300984331406653
4	63	65	n/a	n/a	n/a	f	5	0.07000000000000002	1	f	1	0.502042161533609
4	64	85	n/a	n/a	n/a	f	5	0.06000000000000002	0	f	1	0.5452497150981799
4	65	65	n/a	n/a	n/a	j	5	0.07000000000000002	1	j	1	0.4678243381204084
4	66	85	n/a	n/a	n/a	f	5	0.06000000000000002	0	f	1	0.5099436702439561
4	67	65	n/a	n/a	n/a	f	5	0.07000000000000002	0	f	1	0.5545989546226338
4	68	65	n/a	n/a	n/a	f	5	0.08000000000000002	1	f	1	0.5498643215978518
4	69	85	n/a	n/a	n/a	j	5	0.07000000000000002	1	j	1	0.5129471843829378
4	70	85	n/a	n/a	n/a	f	5	0.06000000000000002	0	f	1	0.4919796051690355
4	71	65	n/a	n/a	n/a	f	5	0.07000000000000002	0	f	1	0.5748389620566741
5	0	69	f	1	1.957894637715071	f	9	0.1	0	f	1	0.7065964411012828
5	1	69	n/a	n/a	n/a	j	9	0.11	0	f	0	0.8751504607498646
5	2	129	n/a	n/a	n/a	f	9	0.12	1	f	1	0.7651437268359587
5	3	89	n/a	n/a	n/a	f	9	0.11	0	f	1	0.8333897828124464
5	4	69	n/a	n/a	n/a	f	9	0.12	0	f	1	0.7569428645074368
5	5	69	n/a	n/a	n/a	j	9	0.13	0	j	1	0.7203801048453897
5	6	69	n/a	n/a	n/a	f	9	0.14	0	f	1	0.7220733056310564
5	7	69	n/a	n/a	n/a	f	9	0.15	0	f	1	0.9820701468270272
5	8	69	n/a	n/a	n/a	f	9	0.16	1	f	1	0.8082161435158923
5	9	89	n/a	n/a	n/a	j	9	0.15	0	j	1	1.01893824711442
5	10	69	n/a	n/a	n/a	f	9	0.16	1	f	1	0.7818599150050431
5	11	89	n/a	n/a	n/a	f	9	0.15	0	f	1	1.000777748995461
5	12	69	n/a	n/a	n/a	f	9	0.16	1	f	1	0.8358077043667436
5	13	89	n/a	n/a	n/a	j	9	0.15	0	j	1	0.718779846210964
5	14	69	n/a	n/a	n/a	f	9	0.16	0	f	1	0.8886458898195997
5	15	69	n/a	n/a	n/a	f	9	0.17	1	f	1	0.9097232319181785
5	16	89	n/a	n/a	n/a	f	9	0.16	1	f	1	0.8873045007931069
5	17	89	n/a	n/a	n/a	j	9	0.15	1	j	1	0.7616047974443063
5	18	89	n/a	n/a	n/a	f	9	0.14	0	f	1	0.7723399014212191
5	19	69	n/a	n/a	n/a	f	9	0.15	0	f	1	0.7927720653824508
5	20	69	n/a	n/a	n/a	f	9	0.16	0	f	1	0.9724269706057385
5	21	69	n/a	n/a	n/a	j	9	0.17	1	j	1	0.904276707675308
5	22	89	n/a	n/a	n/a	f	9	0.16	1	f	1	0.7882732088910416
5	23	89	n/a	n/a	n/a	f	9	0.15	0	f	1	0.9512421461986378
5	24	69	n/a	n/a	n/a	f	9	0.16	1	f	1	1.009113177889958
5	25	89	n/a	n/a	n/a	j	9	0.15	1	j	1	1.132400376489386
5	26	89	n/a	n/a	n/a	f	9	0.14	2	f	1	0.7990932723041624
5	27	109	n/a	n/a	n/a	f	9	0.15	0	f	1	0.8589802363421768
5	28	69	n/a	n/a	n/a	f	9	0.16	1	f	1	0.9089172581443563
5	29	89	n/a	n/a	n/a	j	9	0.15	1	j	1	0.7766930724028498
5	30	89	n/a	n/a	n/a	f	9	0.14	0	f	1	0.900566719006747
5	31	69	n/a	n/a	n/a	f	9	0.15	1	f	1	0.9839426747057587
5	32	89	n/a	n/a	n/a	f	9	0.14	1	f	1	0.8344075849745423
5	33	89	n/a	n/a	n/a	j	9	0.13	0	j	1	0.7098157750442624
5	34	69	n/a	n/a	n/a	f	9	0.14	0	f	1	0.817803155281581
5	35	69	n/a	n/a	n/a	f	9	0.15	0	f	1	1.012541203876026
5	36	69	n/a	n/a	n/a	f	9	0.16	1	f	1	0.920100822346285
5	37	89	n/a	n/a	n/a	j	9	0.15	1	j	1	0.8786087072221562
5	38	89	n/a	n/a	n/a	f	9	0.14	1	f	1	0.7865560597274452
5	39	89	n/a	n/a	n/a	f	9	0.13	0	f	1	1.071105595328845
5	40	69	n/a	n/a	n/a	f	9	0.14	1	f	1	0.9063527958933264
5	41	89	n/a	n/a	n/a	j	9	0.13	1	j	1	0.7253368297824636
5	42	89	n/a	n/a	n/a	f	9	0.12	0	f	1	0.8885084722423926
5	43	69	n/a	n/a	n/a	f	9	0.13	1	f	1	1.003360172500834
5	44	89	n/a	n/a	n/a	f	9	0.12	1	f	1	0.814171283855103
5	45	89	n/a	n/a	n/a	j	9	0.11	0	j	1	0.7932849577628076
5	46	69	n/a	n/a	n/a	f	9	0.12	0	f	1	0.9501844303449616
5	47	69	n/a	n/a	n/a	f	9	0.13	1	f	1	1.058010730077513
5	48	89	n/a	n/a	n/a	f	9	0.12	1	f	1	0.7330102595733479
5	49	89	n/a	n/a	n/a	j	9	0.11	0	j	1	1.194043548312038
5	50	69	n/a	n/a	n/a	f	9	0.12	2	f	1	0.820838030311279
5	51	109	n/a	n/a	n/a	f	9	0.13	0	f	1	0.9599789938656613
5	52	69	n/a	n/a	n/a	f	9	0.14	1	f	1	0.7398167044157162
5	53	89	n/a	n/a	n/a	j	9	0.13	0	j	1	0.694819871801883
5	54	69	n/a	n/a	n/a	f	9	0.14	0	f	1	0.8017056310782209
5	55	69	n/a	n/a	n/a	f	9	0.15	0	f	1	0.8696181217674166
5	56	69	n/a	n/a	n/a	f	9	0.16	1	f	1	0.8327659870265052
5	57	89	n/a	n/a	n/a	j	9	0.15	0	j	1	0.7396074420539662
5	58	69	n/a	n/a	n/a	f	9	0.16	0	f	1	0.9015189484925941
5	59	69	n/a	n/a	n/a	f	9	0.17	1	f	1	0.8241645612288266
5	60	89	n/a	n/a	n/a	f	9	0.16	0	f	1	0.8435159161454067
5	61	69	n/a	n/a	n/a	j	9	0.17	1	j	1	0.893309818347916
5	62	89	n/a	n/a	n/a	f	9	0.16	1	f	1	0.7124392526457086
5	63	89	n/a	n/a	n/a	f	9	0.15	0	f	1	1.105790980509482
5	64	69	n/a	n/a	n/a	f	9	0.16	1	f	1	0.9412619834765792
5	65	89	n/a	n/a	n/a	j	9	0.15	1	j	1	1.087987426086329
5	66	89	n/a	n/a	n/a	f	9	0.14	1	f	1	0.850924204220064
5	67	89	n/a	n/a	n/a	f	9	0.13	0	f	1	1.062020642333664
5	68	69	n/a	n/a	n/a	f	9	0.14	1	f	1	0.9450144516304135
5	69	89	n/a	n/a	n/a	j	9	0.13	1	j	1	1.083903103019111
5	70	89	n/a	n/a	n/a	f	9	0.12	1	f	1	0.9504923367640004
5	71	89	n/a	n/a	n/a	f	9	0.11	1	f	1	1.249852176406421
6	0	82	j	1	0.0753823600243777	j	2	0.1	2	j	1	0.4688327320618555
6	1	102	n/a	n/a	n/a	f	2	0.11	2	j	0	0.4070256286067888
6	2	122	n/a	n/a	n/a	j	2	0.1	1	j	1	0.6576814980944619
6	3	82	n/a	n/a	n/a	j	2	0.09000000000000001	2	j	1	0.4287701015127823
6	4	102	n/a	n/a	n/a	j	2	0.1	1	j	1	0.4568759803660214
6	5	82	n/a	n/a	n/a	f	2	0.09000000000000001	1	f	1	0.4436716370983049
6	6	82	n/a	n/a	n/a	j	2	0.08000000000000002	1	j	1	0.4626204327214509
6	7	82	n/a	n/a	n/a	j	2	0.07000000000000002	2	j	1	0.4096026353072375
6	8	102	n/a	n/a	n/a	j	2	0.08000000000000002	1	j	1	0.4665924269938841
6	9	82	n/a	n/a	n/a	f	2	0.07000000000000002	2	f	1	0.4625055380165577
6	10	102	n/a	n/a	n/a	j	2	0.08000000000000002	1	j	1	0.4565278749214485
6	11	82	n/a	n/a	n/a	j	2	0.07000000000000002	1	j	1	0.4421121475752443
6	12	82	n/a	n/a	n/a	j	2	0.06000000000000002	1	j	1	0.4704500966472551
6	13	82	n/a	n/a	n/a	f	2	0.05000000000000002	2	f	1	0.4821191837545484
6	14	102	n/a	n/a	n/a	j	2	0.06000000000000002	2	j	1	0.4841288439929485
6	15	102	n/a	n/a	n/a	j	2	0.07000000000000002	2	j	1	0.4794107467168942
6	16	102	n/a	n/a	n/a	j	2	0.08000000000000002	2	j	1	0.5292859020410106
6	17	102	n/a	n/a	n/a	f	2	0.09000000000000001	2	f	1	0.4512541204458103
6	18	102	n/a	n/a	n/a	j	2	0.1	1	j	1	0.4942521263146773
6	19	82	n/a	n/a	n/a	j	2	0.09000000000000001	2	j	1	0.5053327700588852
6	20	102	n/a	n/a	n/a	j	2	0.1	2	j	1	0.4912303659366444
6	21	102	n/a	n/a	n/a	f	2	0.11	1	f	1	0.4791897952090949
6	22	82	n/a	n/a	n/a	j	2	0.1	1	j	1	0.5461708687944338
6	23	82	n/a	n/a	n/a	j	2	0.09000000000000001	2	j	1	0.5283054477768019
6	24	102	n/a	n/a	n/a	j	2	0.1	2	j	1	0.5071593968896195
6	25	102	n/a	n/a	n/a	f	2	0.11	2	f	1	0.5004219459369779
6	26	102	n/a	n/a	n/a	j	2	0.12	1	j	1	0.6642972119152546
6	27	82	n/a	n/a	n/a	j	2	0.11	2	j	1	0.5220093295210972
6	28	102	n/a	n/a	n/a	j	2	0.12	2	j	1	0.5726696464698762
6	29	102	n/a	n/a	n/a	f	2	0.13	2	f	1	0.5121221089502797
6	30	102	n/a	n/a	n/a	j	2	0.14	1	j	1	0.7789405049989
6	31	82	n/a	n/a	n/a	j	2	0.13	2	j	1	0.5259089086903259
6	32	102	n/a	n/a	n/a	j	2	0.14	2	j	1	0.5198109340853989
6	33	102	n/a	n/a	n/a	f	2	0.15	1	f	1	0.7080558611778542
6	34	82	n/a	n/a	n/a	j	2	0.14	2	j	1	0.558356839697808
6	35	102	n/a	n/a	n/a	j	2	0.15	2	j	1	0.7042979759862646
6	36	102	n/a	n/a	n/a	j	2	0.16	2	j	1	0.5405592723982409
6	37	102	n/a	n/a	n/a	f	2	0.17	1	f	1	0.5359697544481605
6	38	82	n/a	n/a	n/a	j	2	0.16	1	j	1	0.7371712741442025
6	39	82	n/a	n/a	n/a	j	2	0.15	2	j	1	0.5805349476868287
6	40	102	n/a	n/a	n/a	j	2	0.16	2	j	1	0.6065681594191119
6	41	102	n/a	n/a	n/a	f	2	0.17	2	f	1	0.6345562924398109
6	42	102	n/a	n/a	n/a	j	2	0.18	2	j	1	0.860262039816007
6	43	102	n/a	n/a	n/a	j	2	0.1900000000000001	2	j	1	0.8394997316645458
6	44	102	n/a	n/a	n/a	j	2	0.2000000000000001	2	j	1	0.5453646098030731
6	45	102	n/a	n/a	n/a	f	2	0.2100000000000001	1	f	1	0.4923895769752562
6	46	82	n/a	n/a	n/a	j	2	0.2000000000000001	1	j	1	0.5190565629163757
6	47	82	n/a	n/a	n/a	j	2	0.1900000000000001	1	j	1	0.3873267384478822
6	48	82	n/a	n/a	n/a	j	2	0.18	1	j	1	0.4382789963856339
6	49	82	n/a	n/a	n/a	f	2	0.17	1	f	1	0.3692511998815462
6	50	82	n/a	n/a	n/a	j	2	0.16	1	j	1	0.4031434406060725
6	51	82	n/a	n/a	n/a	j	2	0.15	1	j	1	0.4221911655040458
6	52	82	n/a	n/a	n/a	j	2	0.14	1	j	1	0.3851306235883385
6	53	82	n/a	n/a	n/a	f	2	0.13	1	f	1	0.3472284706076607
6	54	82	n/a	n/a	n/a	j	2	0.12	1	j	1	0.4301166224759072
6	55	82	n/a	n/a	n/a	j	2	0.11	1	j	1	0.3363103333394974
6	56	82	n/a	n/a	n/a	j	2	0.1	1	j	1	0.395117343752645
6	57	82	n/a	n/a	n/a	f	2	0.09000000000000002	1	f	1	0.3502120279008523
6	58	82	n/a	n/a	n/a	j	2	0.08000000000000003	1	j	1	0.457128862850368
6	59	82	n/a	n/a	n/a	j	2	0.07000000000000003	1	j	1	0.3970545890042558
6	60	82	n/a	n/a	n/a	j	2	0.06000000000000003	1	j	1	0.3601944715483114
6	61	82	n/a	n/a	n/a	f	2	0.05000000000000003	1	f	1	0.3640709576429799
6	62	82	n/a	n/a	n/a	j	2	0.04000000000000003	1	j	1	0.4146628509042785
6	63	82	n/a	n/a	n/a	j	2	0.03000000000000003	2	j	1	0.3608724360819906
6	64	102	n/a	n/a	n/a	j	2	0.04000000000000003	1	j	1	0.4039573970949277
6	65	82	n/a	n/a	n/a	f	2	0.03000000000000003	1	f	1	0.381955194985494
6	66	82	n/a	n/a	n/a	j	2	0.02000000000000002	1	j	1	0.4439607270760462
6	67	82	n/a	n/a	n/a	j	2	0.01000000000000002	2	j	1	0.3509165064897388
6	68	102	n/a	n/a	n/a	j	2	0.02000000000000002	0	j	1	0.3859391633886844
6	69	62	n/a	n/a	n/a	f	2	0.03000000000000003	1	f	1	0.3417702573351562
6	70	82	n/a	n/a	n/a	j	2	0.02000000000000002	0	j	1	0.3669054082129151
6	71	62	n/a	n/a	n/a	j	2	0.03000000000000003	1	j	1	0.3559459316311404
7	0	91	f	1	1.748789043514989	f	11	0.1	0	f	1	0.8001430055592209
7	1	71	n/a	n/a	n/a	f	11	0.11	0	f	1	0.8890316282631829
7	2	71	n/a	n/a	n/a	j	11	0.12	0	f	0	0.8366718384204432
7	3	131	n/a	n/a	n/a	f	11	0.11	0	f	1	0.8251395985716954
7	4	71	n/a	n/a	n/a	f	11	0.12	0	f	1	0.8666804654058069
7	5	71	n/a	n/a	n/a	f	11	0.13	1	f	1	0.8458397552603856
7	6	91	n/a	n/a	n/a	f	11	0.12	1	j	0	0.8159240701934323
7	7	131	n/a	n/a	n/a	f	11	0.13	0	f	1	0.9468305299524218
7	8	71	n/a	n/a	n/a	j	11	0.14	0	f	0	0.885707663372159
7	9	131	n/a	n/a	n/a	f	11	0.13	1	f	1	1.063701868988574
7	10	91	n/a	n/a	n/a	f	11	0.12	1	f	1	0.9144441802054644
7	11	91	n/a	n/a	n/a	f	11	0.11	1	f	1	0.9166631029220298
7	12	91	n/a	n/a	n/a	f	11	0.1	1	f	1	1.009093506028876
7	13	91	n/a	n/a	n/a	f	11	0.09000000000000002	1	f	1	0.8201763164252043
7	14	91	n/a	n/a	n/a	j	11	0.08000000000000003	0	j	1	0.7300554973771796
7	15	71	n/a	n/a	n/a	f	11	0.09000000000000002	0	f	1	0.8129895500605926
7	16	71	n/a	n/a	n/a	f	11	0.1	0	f	1	0.8953896129969507
7	17	71	n/a	n/a	n/a	f	11	0.11	1	f	1	0.7844049904961139
7	18	91	n/a	n/a	n/a	f	11	0.1	0	f	1	0.8831563156563789
7	19	71	n/a	n/a	n/a	f	11	0.11	1	f	1	0.8461710398551077
7	20	91	n/a	n/a	n/a	j	11	0.1	0	j	1	0.6987978530814871
7	21	71	n/a	n/a	n/a	f	11	0.11	0	f	1	0.7420618560863659
7	22	71	n/a	n/a	n/a	f	11	0.12	0	f	1	0.8011824750574306
7	23	71	n/a	n/a	n/a	f	11	0.13	0	f	1	0.8107751888455823
7	24	71	n/a	n/a	n/a	f	11	0.14	0	f	1	0.8938101665116847
7	25	71	n/a	n/a	n/a	f	11	0.15	1	f	1	0.7385155141819268
7	26	91	n/a	n/a	n/a	j	11	0.14	0	j	1	0.7417787532322109
7	27	71	n/a	n/a	n/a	f	11	0.15	0	f	1	0.7369146853452548
7	28	71	n/a	n/a	n/a	f	11	0.16	0	f	1	0.8593329034047201
7	29	71	n/a	n/a	n/a	f	11	0.17	1	f	1	0.9267142553580925
7	30	91	n/a	n/a	n/a	f	11	0.16	1	f	1	0.8176902562845498
7	31	91	n/a	n/a	n/a	f	11	0.15	0	f	1	1.332532206200995
7	32	71	n/a	n/a	n/a	j	11	0.16	2	j	1	0.6236906131962314
7	33	111	n/a	n/a	n/a	f	11	0.17	0	f	1	0.7864625474903733
7	34	71	n/a	n/a	n/a	f	11	0.18	0	f	1	0.9804738794919103
7	35	71	n/a	n/a	n/a	f	11	0.1900000000000001	1	f	1	0.9754182253964245
7	36	91	n/a	n/a	n/a	f	11	0.18	1	f	1	0.7383384680142626
7	37	91	n/a	n/a	n/a	f	11	0.17	0	f	1	0.9168372981948778
7	38	71	n/a	n/a	n/a	j	11	0.18	1	j	1	0.7284138993127272
7	39	91	n/a	n/a	n/a	f	11	0.17	0	f	1	0.7471226420020685
7	40	71	n/a	n/a	n/a	f	11	0.18	0	f	1	0.9592251931317151
7	41	71	n/a	n/a	n/a	f	11	0.1900000000000001	1	f	1	0.9141556604299694
7	42	91	n/a	n/a	n/a	f	11	0.18	1	f	1	0.762473207898438
7	43	91	n/a	n/a	n/a	f	11	0.17	0	f	1	0.8050566804595292
7	44	71	n/a	n/a	n/a	j	11	0.18	1	j	1	0.752016645274125
7	45	91	n/a	n/a	n/a	f	11	0.17	0	f	1	0.7228105707326904
7	46	71	n/a	n/a	n/a	f	11	0.18	0	f	1	0.9428206176962703
7	47	71	n/a	n/a	n/a	f	11	0.1900000000000001	1	f	1	1.136938861804083
7	48	91	n/a	n/a	n/a	f	11	0.18	1	f	1	0.7315719369798899
7	49	91	n/a	n/a	n/a	f	11	0.17	0	f	1	0.8945397339994088
7	50	71	n/a	n/a	n/a	j	11	0.18	1	j	1	0.9777209671447054
7	51	91	n/a	n/a	n/a	f	11	0.17	1	f	1	0.8126012455904856
7	52	91	n/a	n/a	n/a	f	11	0.16	0	f	1	1.047355453600176
7	53	71	n/a	n/a	n/a	f	11	0.17	1	f	1	0.9942264674464241
7	54	91	n/a	n/a	n/a	f	11	0.16	1	f	1	1.070424779783934
7	55	91	n/a	n/a	n/a	f	11	0.15	1	f	1	0.9534054747782648
7	56	91	n/a	n/a	n/a	j	11	0.14	1	j	1	0.8508304067654535
7	57	91	n/a	n/a	n/a	f	11	0.13	0	f	1	0.846166193136014
7	58	71	n/a	n/a	n/a	f	11	0.14	1	f	1	1.001202260958962
7	59	91	n/a	n/a	n/a	f	11	0.13	1	f	1	0.8043159942608327
7	60	91	n/a	n/a	n/a	f	11	0.12	0	f	1	0.968192970729433
7	61	71	n/a	n/a	n/a	f	11	0.13	1	f	1	1.066652924870141
7	62	91	n/a	n/a	n/a	j	11	0.12	1	j	1	0.7966642319224775
7	63	91	n/a	n/a	n/a	f	11	0.11	0	f	1	0.9512193383416161
7	64	71	n/a	n/a	n/a	f	11	0.12	1	f	1	1.25777022074908
7	65	91	n/a	n/a	n/a	f	11	0.11	2	f	1	0.8597733807982877
7	66	111	n/a	n/a	n/a	f	11	0.12	0	f	1	1.342772949137725
7	67	71	n/a	n/a	n/a	f	11	0.13	2	f	1	0.6884137055603787
7	68	111	n/a	n/a	n/a	j	11	0.14	0	j	1	0.7077362654963508
7	69	71	n/a	n/a	n/a	f	11	0.15	0	f	1	0.718605080852285
7	70	71	n/a	n/a	n/a	f	11	0.16	0	f	1	0.8225828339345753
7	71	71	n/a	n/a	n/a	f	11	0.17	1	f	1	0.9295455698156729
8	0	83	f	1	0.09630004689097404	f	3	0.1	2	f	1	0.4163289673160762
8	1	103	n/a	n/a	n/a	f	3	0.11	1	f	1	0.9015868020942435
8	2	83	n/a	n/a	n/a	j	3	0.1	1	f	0	0.3848090323153883
8	3	123	n/a	n/a	n/a	f	3	0.11	1	f	1	0.5155595431569964
8	4	83	n/a	n/a	n/a	f	3	0.1	2	f	1	0.3735764313023537
8	5	103	n/a	n/a	n/a	f	3	0.11	1	f	1	0.4165319575695321
8	6	83	n/a	n/a	n/a	f	3	0.1	1	f	1	0.3944838546449319
8	7	83	n/a	n/a	n/a	f	3	0.09000000000000001	1	f	1	0.4211784951621667
8	8	83	n/a	n/a	n/a	j	3	0.08000000000000002	1	j	1	0.4086193300317973
8	9	83	n/a	n/a	n/a	f	3	0.07000000000000002	1	f	1	0.4515446359291673
8	10	83	n/a	n/a	n/a	f	3	0.06000000000000002	2	f	1	0.406377314357087
8	11	103	n/a	n/a	n/a	f	3	0.07000000000000002	1	f	1	0.4474831207189709
8	12	83	n/a	n/a	n/a	f	3	0.06000000000000002	2	f	1	0.4253004512283951
8	13	103	n/a	n/a	n/a	f	3	0.07000000000000002	1	f	1	0.4041937439469621
8	14	83	n/a	n/a	n/a	j	3	0.06000000000000002	1	j	1	0.415312020573765
8	15	83	n/a	n/a	n/a	f	3	0.05000000000000002	1	f	1	0.4239271311089396
8	16	83	n/a	n/a	n/a	f	3	0.04000000000000001	1	f	1	0.4190707609523088
8	17	83	n/a	n/a	n/a	f	3	0.03000000000000001	1	f	1	0.4302814094116911
8	18	83	n/a	n/a	n/a	f	3	0.02000000000000001	2	f	1	0.4172007989836857
8	19	103	n/a	n/a	n/a	f	3	0.03000000000000001	1	f	1	0.4282181506277993
8	20	83	n/a	n/a	n/a	j	3	0.02000000000000001	2	j	1	0.3821767166955397
8	21	103	n/a	n/a	n/a	f	3	0.03000000000000001	1	f	1	0.4342012306442484
8	22	83	n/a	n/a	n/a	f	3	0.02000000000000001	2	f	1	0.3741708619054407
8	23	103	n/a	n/a	n/a	f	3	0.03000000000000001	1	f	1	0.4027893480379134
8	24	83	n/a	n/a	n/a	f	3	0.02000000000000001	1	f	1	0.445775950094685
8	25	83	n/a	n/a	n/a	f	3	0.01000000000000001	2	f	1	0.4167782827280462
8	26	103	n/a	n/a	n/a	j	3	0.02000000000000001	2	j	1	0.4030587662709877
8	27	103	n/a	n/a	n/a	f	3	0.03000000000000001	1	f	1	0.4939661724492908
8	28	83	n/a	n/a	n/a	f	3	0.02000000000000001	2	f	1	0.3690154233481735
8	29	103	n/a	n/a	n/a	f	3	0.03000000000000001	1	f	1	0.3879032079130411
8	30	83	n/a	n/a	n/a	f	3	0.02000000000000001	1	f	1	0.4065791642060503
8	31	83	n/a	n/a	n/a	f	3	0.01000000000000001	2	f	1	0.4494751049205661
8	32	103	n/a	n/a	n/a	j	3	0.02000000000000001	2	j	1	0.3637513619614765
8	33	103	n/a	n/a	n/a	f	3	0.03000000000000001	1	f	1	0.4384058653376997
8	34	83	n/a	n/a	n/a	f	3	0.02000000000000001	2	f	1	0.3445565261645243
8	35	103	n/a	n/a	n/a	f	3	0.03000000000000001	0	f	1	0.3887325598625466
8	36	63	n/a	n/a	n/a	f	3	0.04000000000000001	1	f	1	0.4479298703372478
8	37	83	n/a	n/a	n/a	f	3	0.03000000000000001	2	f	1	0.4345556081971154
8	38	103	n/a	n/a	n/a	j	3	0.04000000000000001	2	j	1	0.3493259412935004
8	39	103	n/a	n/a	n/a	f	3	0.05000000000000002	1	f	1	0.4409996926551685
8	40	83	n/a	n/a	n/a	f	3	0.04000000000000001	2	f	1	0.3567627391312271
8	41	103	n/a	n/a	n/a	f	3	0.05000000000000002	1	f	1	0.3827041492331773
8	42	83	n/a	n/a	n/a	f	3	0.04000000000000001	1	f	1	0.4173712879419327
8	43	83	n/a	n/a	n/a	f	3	0.03000000000000001	1	f	1	0.420550137758255
8	44	83	n/a	n/a	n/a	j	3	0.02000000000000001	2	j	1	0.3515360259916633
8	45	103	n/a	n/a	n/a	f	3	0.03000000000000001	0	f	1	0.450137103907764
8	46	63	n/a	n/a	n/a	f	3	0.04000000000000001	2	f	1	0.4204175669001415
8	47	103	n/a	n/a	n/a	f	3	0.05000000000000002	1	f	1	0.3523733606562018
8	48	83	n/a	n/a	n/a	f	3	0.04000000000000001	1	f	1	0.458470536977984
8	49	83	n/a	n/a	n/a	f	3	0.03000000000000001	2	f	1	0.4044069977244362
8	50	103	n/a	n/a	n/a	j	3	0.04000000000000001	1	j	1	0.4149590684100986
8	51	83	n/a	n/a	n/a	f	3	0.03000000000000001	1	f	1	0.4505217019468546
8	52	83	n/a	n/a	n/a	f	3	0.02000000000000001	2	f	1	0.4133542481577024
8	53	103	n/a	n/a	n/a	f	3	0.03000000000000001	1	f	1	0.3684600510168821
8	54	83	n/a	n/a	n/a	f	3	0.02000000000000001	1	f	1	0.4193005504785106
8	55	83	n/a	n/a	n/a	f	3	0.01000000000000001	2	f	1	0.4462175678927451
8	56	103	n/a	n/a	n/a	j	3	0.02000000000000001	2	j	1	0.4332686729030684
8	57	103	n/a	n/a	n/a	f	3	0.03000000000000001	2	f	1	0.4430213270243257
8	58	103	n/a	n/a	n/a	f	3	0.04000000000000001	2	f	1	0.3742104906123132
8	59	103	n/a	n/a	n/a	f	3	0.05000000000000002	1	f	1	0.3842299970565364
8	60	83	n/a	n/a	n/a	f	3	0.04000000000000001	1	f	1	0.4768924704985693
8	61	83	n/a	n/a	n/a	f	3	0.03000000000000001	2	f	1	0.3837863835506141
8	62	103	n/a	n/a	n/a	j	3	0.04000000000000001	1	j	1	0.4031605464406312
8	63	83	n/a	n/a	n/a	f	3	0.03000000000000001	1	f	1	0.414123444352299
8	64	83	n/a	n/a	n/a	f	3	0.02000000000000001	2	f	1	0.3848874345421791
8	65	103	n/a	n/a	n/a	f	3	0.03000000000000001	1	f	1	0.3560702346730977
8	66	83	n/a	n/a	n/a	f	3	0.02000000000000001	0	f	1	0.4386963808210567
8	67	63	n/a	n/a	n/a	f	3	0.03000000000000001	2	f	1	0.4022165848873556
8	68	103	n/a	n/a	n/a	j	3	0.04000000000000001	1	j	1	0.3889455284224823
8	69	83	n/a	n/a	n/a	f	3	0.03000000000000001	1	f	1	0.4229674889938906
8	70	83	n/a	n/a	n/a	f	3	0.02000000000000001	2	f	1	0.4019605662906542
8	71	103	n/a	n/a	n/a	f	3	0.03000000000000001	1	f	1	0.3569192583672702
9	0	84	j	1	0.02545816777274013	j	4	0.1	1	j	1	0.4629346114816144
9	1	84	n/a	n/a	n/a	j	4	0.09000000000000001	1	j	1	0.3919712803326547
9	2	84	n/a	n/a	n/a	f	4	0.08000000000000002	1	j	0	0.4191540096653625
9	3	124	n/a	n/a	n/a	j	4	0.07000000000000002	1	f	0	0.3899696026928723
9	4	124	n/a	n/a	n/a	j	4	0.06000000000000002	1	j	1	0.4082287448691204
9	5	84	n/a	n/a	n/a	j	4	0.05000000000000002	1	j	1	0.4330899161286652
9	6	84	n/a	n/a	n/a	j	4	0.04000000000000001	2	j	1	0.4420482853893191
9	7	104	n/a	n/a	n/a	j	4	0.05000000000000002	2	j	1	0.3898986132116988
9	8	104	n/a	n/a	n/a	f	4	0.06000000000000002	1	f	1	0.3691012379713356
9	9	84	n/a	n/a	n/a	j	4	0.05000000000000002	1	j	1	0.4359294985188171
9	10	84	n/a	n/a	n/a	j	4	0.04000000000000001	2	j	1	0.4621668407926336
9	11	104	n/a	n/a	n/a	j	4	0.05000000000000002	2	j	1	0.4009932265616953
9	12	104	n/a	n/a	n/a	j	4	0.06000000000000002	1	j	1	0.379834916559048
9	13	84	n/a	n/a	n/a	j	4	0.05000000000000002	1	j	1	0.3548585653770715
9	14	84	n/a	n/a	n/a	f	4	0.04000000000000001	1	f	1	0.3813074509380385
9	15	84	n/a	n/a	n/a	j	4	0.03000000000000001	1	j	1	0.3929691255325451
9	16	84	n/a	n/a	n/a	j	4	0.02000000000000001	1	j	1	0.4277782434364781
9	17	84	n/a	n/a	n/a	j	4	0.01000000000000001	2	j	1	0.3987244116142392
9	18	104	n/a	n/a	n/a	j	4	0.02000000000000001	1	j	1	0.370886810705997
9	19	84	n/a	n/a	n/a	j	4	0.01000000000000001	0	j	1	0.3893956992542371
9	20	64	n/a	n/a	n/a	f	4	0.02000000000000001	1	f	1	0.3298343177884817
9	21	84	n/a	n/a	n/a	j	4	0.01000000000000001	0	j	1	0.3647902614902705
9	22	64	n/a	n/a	n/a	j	4	0.02000000000000001	1	j	1	0.3668022025376558
9	23	84	n/a	n/a	n/a	j	4	0.01000000000000001	1	f	0	0.4674825050169602
9	24	124	n/a	n/a	n/a	j	4	0.02000000000000001	2	j	1	0.4055054826894775
9	25	104	n/a	n/a	n/a	j	4	0.03000000000000001	1	j	1	0.2808766098460183
9	26	84	n/a	n/a	n/a	f	4	0.02000000000000001	0	f	1	0.5395329172024503
9	27	64	n/a	n/a	n/a	j	4	0.03000000000000001	2	j	1	0.3663041351828724
9	28	104	n/a	n/a	n/a	j	4	0.04000000000000001	1	j	1	0.3134964553173631
9	29	84	n/a	n/a	n/a	j	4	0.03000000000000001	0	j	1	0.4131033613812178
9	30	64	n/a	n/a	n/a	j	4	0.04000000000000001	1	j	1	0.3614480501273647
9	31	84	n/a	n/a	n/a	j	4	0.03000000000000001	1	j	1	0.3645804289262742
9	32	84	n/a	n/a	n/a	f	4	0.02000000000000001	1	f	1	0.3435558300698176
9	33	84	n/a	n/a	n/a	j	4	0.01000000000000001	0	j	1	0.3710575847653672
9	34	64	n/a	n/a	n/a	j	4	0.02000000000000001	1	j	1	0.3414472405565903
9	35	84	n/a	n/a	n/a	j	4	0.01000000000000001	0	j	1	0.3510818637441844
9	36	64	n/a	n/a	n/a	j	4	0.02000000000000001	0	j	1	0.3784233931219205
9	37	64	n/a	n/a	n/a	j	4	0.03000000000000001	1	j	1	0.3408850259147584
9	38	84	n/a	n/a	n/a	f	4	0.02000000000000001	0	f	1	0.321342654991895
9	39	64	n/a	n/a	n/a	j	4	0.03000000000000001	0	j	1	0.3802149528637528
9	40	64	n/a	n/a	n/a	j	4	0.04000000000000001	1	j	1	0.3352332306094468
9	41	84	n/a	n/a	n/a	j	4	0.03000000000000001	0	j	1	0.3237283603521064
9	42	64	n/a	n/a	n/a	j	4	0.04000000000000001	0	j	1	0.3750341405393556
9	43	64	n/a	n/a	n/a	j	4	0.05000000000000002	1	j	1	0.3380132274469361
9	44	84	n/a	n/a	n/a	f	4	0.04000000000000001	0	f	1	0.429036668734625
9	45	64	n/a	n/a	n/a	j	4	0.05000000000000002	1	j	1	0.3923122582491487
9	46	84	n/a	n/a	n/a	j	4	0.04000000000000001	1	j	1	0.4500316174235195
9	47	84	n/a	n/a	n/a	j	4	0.03000000000000001	2	j	1	0.389010815997608
9	48	104	n/a	n/a	n/a	j	4	0.04000000000000001	1	j	1	0.4080856253858656
9	49	84	n/a	n/a	n/a	j	4	0.03000000000000001	1	j	1	0.4029447267530486
9	50	84	n/a	n/a	n/a	f	4	0.02000000000000001	1	f	1	0.3405796854058281
9	51	84	n/a	n/a	n/a	j	4	0.01000000000000001	0	j	1	0.3921092681121081
9	52	64	n/a	n/a	n/a	j	4	0.02000000000000001	1	j	1	0.3620855307672173
9	53	84	n/a	n/a	n/a	j	4	0.01000000000000001	0	j	1	0.4429104237351567
9	54	64	n/a	n/a	n/a	j	4	0.02000000000000001	2	j	1	0.4779601648915559
9	55	104	n/a	n/a	n/a	j	4	0.03000000000000001	2	j	1	0.3838855979265645
9	56	104	n/a	n/a	n/a	f	4	0.04000000000000001	1	f	1	0.3560072277905419
9	57	84	n/a	n/a	n/a	j	4	0.03000000000000001	0	j	1	0.3988008181331679
9	58	64	n/a	n/a	n/a	j	4	0.04000000000000001	1	j	1	0.4018297060392797
9	59	84	n/a	n/a	n/a	j	4	0.03000000000000001	1	j	1	0.4127555410377681
9	60	84	n/a	n/a	n/a	j	4	0.02000000000000001	2	j	1	0.3839069803943858
9	61	104	n/a	n/a	n/a	j	4	0.03000000000000001	1	j	1	0.4518137690611184
9	62	84	n/a	n/a	n/a	f	4	0.02000000000000001	2	f	1	0.3747923768823966
9	63	104	n/a	n/a	n/a	j	4	0.03000000000000001	1	j	1	0.4183272237423807
9	64	84	n/a	n/a	n/a	j	4	0.02000000000000001	2	j	1	0.4056027013575658
9	65	104	n/a	n/a	n/a	j	4	0.03000000000000001	1	j	1	0.480238103074953
9	66	84	n/a	n/a	n/a	j	4	0.02000000000000001	2	j	1	0.3965385605115443
9	67	104	n/a	n/a	n/a	j	4	0.03000000000000001	1	j	1	0.4045341517776251
9	68	84	n/a	n/a	n/a	f	4	0.02000000000000001	1	f	1	0.3616273772204295
9	69	84	n/a	n/a	n/a	j	4	0.01000000000000001	0	j	1	0.4282580644357949
9	70	64	n/a	n/a	n/a	j	4	0.02000000000000001	2	j	1	0.413464296143502
9	71	104	n/a	n/a	n/a	j	4	0.03000000000000001	2	j	1	0.5037681487156078
10	0	106	j	1	0.04008942970540375	j	6	0.1	1	j	1	0.6091930625261739
10	1	86	n/a	n/a	n/a	f	6	0.09000000000000001	1	j	0	0.6111693662824109
10	2	126	n/a	n/a	n/a	j	6	0.08000000000000002	1	j	1	0.5972953262971714
10	3	86	n/a	n/a	n/a	j	6	0.07000000000000002	1	j	1	0.5611183050787076
10	4	86	n/a	n/a	n/a	j	6	0.06000000000000002	1	j	1	0.5962866472546011
10	5	86	n/a	n/a	n/a	f	6	0.05000000000000002	1	f	1	0.5752150071784854
10	6	86	n/a	n/a	n/a	j	6	0.04000000000000001	1	j	1	0.5783505219733343
10	7	86	n/a	n/a	n/a	j	6	0.03000000000000001	1	j	1	0.5876977657899261
10	8	86	n/a	n/a	n/a	j	6	0.02000000000000001	1	j	1	0.5922875687247142
10	9	86	n/a	n/a	n/a	f	6	0.01000000000000001	1	f	1	0.545949061983265
10	10	86	n/a	n/a	n/a	j	6	1.040834085586084e-17	0	j	1	0.6217727547045797
10	11	66	n/a	n/a	n/a	j	6	0.01000000000000001	2	j	1	0.56128879415337
10	12	106	n/a	n/a	n/a	j	6	0.02000000000000001	0	j	1	0.6200943790609017
10	13	66	n/a	n/a	n/a	f	6	0.03000000000000001	1	f	1	0.5818247338756919
10	14	86	n/a	n/a	n/a	j	6	0.02000000000000001	1	j	1	0.619045501225628
10	15	86	n/a	n/a	n/a	j	6	0.01000000000000001	2	j	1	0.5420015862910077
10	16	106	n/a	n/a	n/a	j	6	0.02000000000000001	0	j	1	0.6806185386376455
10	17	66	n/a	n/a	n/a	f	6	0.03000000000000001	2	f	1	0.6194993781391531
10	18	106	n/a	n/a	n/a	j	6	0.04000000000000001	1	j	1	0.5978338775457814
10	19	86	n/a	n/a	n/a	j	6	0.03000000000000001	1	j	1	0.6168761856388301
10	20	86	n/a	n/a	n/a	j	6	0.02000000000000001	2	j	1	0.6353867847938091
10	21	106	n/a	n/a	n/a	f	6	0.03000000000000001	2	f	1	0.5650994224706665
10	22	106	n/a	n/a	n/a	j	6	0.04000000000000001	1	j	1	0.6094992584548891
10	23	86	n/a	n/a	n/a	j	6	0.03000000000000001	1	j	1	0.6526731703197584
10	24	86	n/a	n/a	n/a	j	6	0.02000000000000001	2	j	1	0.5436873745638877
10	25	106	n/a	n/a	n/a	f	6	0.03000000000000001	0	f	1	0.7803671386791393
10	26	66	n/a	n/a	n/a	j	6	0.04000000000000001	2	j	1	0.5417099304031581
10	27	106	n/a	n/a	n/a	j	6	0.05000000000000002	1	j	1	0.6472055487101898
10	28	86	n/a	n/a	n/a	j	6	0.04000000000000001	2	j	1	0.5933464250992984
10	29	106	n/a	n/a	n/a	f	6	0.05000000000000002	1	f	1	0.5870725444983691
10	30	86	n/a	n/a	n/a	j	6	0.04000000000000001	1	j	1	0.597335240105167
10	31	86	n/a	n/a	n/a	j	6	0.03000000000000001	1	j	1	0.6004619168816134
10	32	86	n/a	n/a	n/a	j	6	0.02000000000000001	1	j	1	0.6352505076210946
10	33	86	n/a	n/a	n/a	f	6	0.01000000000000001	2	f	1	0.5177348456345499
10	34	106	n/a	n/a	n/a	j	6	0.02000000000000001	0	j	1	0.6247774091316387
10	35	66	n/a	n/a	n/a	j	6	0.03000000000000001	2	j	1	0.5969004647340626
10	36	106	n/a	n/a	n/a	j	6	0.04000000000000001	1	j	1	0.6313181421719491
10	37	86	n/a	n/a	n/a	f	6	0.03000000000000001	2	f	1	0.5287610355298966
10	38	106	n/a	n/a	n/a	j	6	0.04000000000000001	0	j	1	0.5726881779264659
10	39	66	n/a	n/a	n/a	j	6	0.05000000000000002	1	j	1	0.6072506855707616
10	40	86	n/a	n/a	n/a	j	6	0.04000000000000001	1	j	1	0.732116760336794
10	41	86	n/a	n/a	n/a	f	6	0.03000000000000001	2	f	1	0.5028894747374579
10	42	106	n/a	n/a	n/a	j	6	0.04000000000000001	0	j	1	0.6169779658084735
10	43	66	n/a	n/a	n/a	j	6	0.05000000000000002	1	j	1	0.6131071817362681
10	44	86	n/a	n/a	n/a	j	6	0.04000000000000001	1	j	1	0.6208333546528593
10	45	86	n/a	n/a	n/a	f	6	0.03000000000000001	2	f	1	0.5600574529962614
10	46	106	n/a	n/a	n/a	j	6	0.04000000000000001	1	j	1	0.6028473371407017
10	47	86	n/a	n/a	n/a	j	6	0.03000000000000001	1	j	1	0.6138187878532335
10	48	86	n/a	n/a	n/a	j	6	0.02000000000000001	2	j	1	0.6405664567137137
10	49	106	n/a	n/a	n/a	f	6	0.03000000000000001	2	f	1	0.5226699031190947
10	50	106	n/a	n/a	n/a	j	6	0.04000000000000001	0	j	1	0.620611833059229
10	51	66	n/a	n/a	n/a	j	6	0.05000000000000002	1	j	1	0.5924455133499578
10	52	86	n/a	n/a	n/a	j	6	0.04000000000000001	1	j	1	0.6263711106730625
10	53	86	n/a	n/a	n/a	f	6	0.03000000000000001	2	f	1	0.541502378648147
10	54	106	n/a	n/a	n/a	j	6	0.04000000000000001	0	j	1	0.6081091174855828
10	55	66	n/a	n/a	n/a	j	6	0.05000000000000002	1	j	1	0.5236095881555229
10	56	86	n/a	n/a	n/a	j	6	0.04000000000000001	0	j	1	0.558186350739561
10	57	66	n/a	n/a	n/a	f	6	0.05000000000000002	1	f	1	0.6313888465519994
10	58	86	n/a	n/a	n/a	j	6	0.04000000000000001	2	j	1	0.5939850460272282
10	59	106	n/a	n/a	n/a	j	6	0.05000000000000002	1	j	1	0.6213371240301058
10	60	86	n/a	n/a	n/a	j	6	0.04000000000000001	1	j	1	0.5825480291387066
10	61	86	n/a	n/a	n/a	f	6	0.03000000000000001	1	f	1	0.7205275008454919
10	62	86	n/a	n/a	n/a	j	6	0.02000000000000001	2	j	1	0.5461021598894149
10	63	106	n/a	n/a	n/a	j	6	0.03000000000000001	0	j	1	0.5641195384087041
10	64	66	n/a	n/a	n/a	j	6	0.04000000000000001	1	j	1	0.7532197614200413
10	65	86	n/a	n/a	n/a	f	6	0.03000000000000001	2	f	1	0.5961862924741581
10	66	106	n/a	n/a	n/a	j	6	0.04000000000000001	1	j	1	0.5589538362110034
10	67	86	n/a	n/a	n/a	j	6	0.03000000000000001	1	j	1	0.5947451189858839
10	68	86	n/a	n/a	n/a	j	6	0.02000000000000001	1	j	1	0.6381647859234363
10	69	86	n/a	n/a	n/a	f	6	0.01000000000000001	2	f	1	0.6261664098128676
10	70	106	n/a	n/a	n/a	j	6	0.02000000000000001	2	j	1	0.5959716133074835
10	71	106	n/a	n/a	n/a	j	6	0.03000000000000001	1	j	1	0.6390525830211118
11	0	90	j	1	1.137313481303863	j	10	0.1	0	j	1	0.8072057538665831
11	1	70	n/a	n/a	n/a	f	10	0.11	0	j	0	0.8972142442362383
11	2	130	n/a	n/a	n/a	j	10	0.12	1	j	1	0.8682177172740921
11	3	90	n/a	n/a	n/a	j	10	0.11	0	j	1	0.7991377476137131
11	4	70	n/a	n/a	n/a	j	10	0.12	0	j	1	0.7475192141719162
11	5	70	n/a	n/a	n/a	f	10	0.13	0	f	1	0.7667437003692612
11	6	70	n/a	n/a	n/a	j	10	0.14	0	j	1	0.777925553964451
11	7	70	n/a	n/a	n/a	j	10	0.15	0	j	1	0.9078364490997046
11	8	70	n/a	n/a	n/a	j	10	0.16	1	j	1	0.7916812779149041
11	9	90	n/a	n/a	n/a	f	10	0.15	0	f	1	0.9717370318248868
11	10	70	n/a	n/a	n/a	j	10	0.16	1	j	1	1.081011347472668
11	11	90	n/a	n/a	n/a	j	10	0.15	1	j	1	1.122669675038196
11	12	90	n/a	n/a	n/a	j	10	0.14	1	j	1	0.845113038783893
11	13	90	n/a	n/a	n/a	f	10	0.13	0	f	1	0.9607020041439682
11	14	70	n/a	n/a	n/a	j	10	0.14	1	j	1	0.8595641184365377
11	15	90	n/a	n/a	n/a	j	10	0.13	0	j	1	1.095531705999747
11	16	70	n/a	n/a	n/a	j	10	0.14	1	j	1	1.050303658586927
11	17	90	n/a	n/a	n/a	f	10	0.13	1	f	1	1.492302906932309
11	18	90	n/a	n/a	n/a	j	10	0.12	2	j	1	0.7591999904252589
11	19	110	n/a	n/a	n/a	j	10	0.13	0	j	1	1.161215295665897
11	20	70	n/a	n/a	n/a	j	10	0.14	2	j	1	0.7401169133372605
11	21	110	n/a	n/a	n/a	f	10	0.15	0	f	1	1.126031558145769
11	22	70	n/a	n/a	n/a	j	10	0.16	1	j	1	0.8571031469618902
11	23	90	n/a	n/a	n/a	j	10	0.15	1	j	1	1.130998261389323
11	24	90	n/a	n/a	n/a	j	10	0.14	2	j	1	1.045512290904298
11	25	110	n/a	n/a	n/a	f	10	0.15	1	f	1	1.144972085952759
11	26	90	n/a	n/a	n/a	j	10	0.14	2	j	1	0.8114574298961088
11	27	110	n/a	n/a	n/a	j	10	0.15	0	j	1	1.046863373368979
11	28	70	n/a	n/a	n/a	j	10	0.16	1	j	1	1.209303452633321
11	29	90	n/a	n/a	n/a	f	10	0.15	2	f	1	1.140602949424647
11	30	110	n/a	n/a	n/a	j	10	0.16	1	j	1	1.120697647682391
11	31	90	n/a	n/a	n/a	j	10	0.15	1	j	1	1.242533979471773
11	32	90	n/a	n/a	n/a	j	10	0.14	2	j	1	1.623445143341087
11	33	110	n/a	n/a	n/a	f	10	0.15	2	f	1	1.321177582838573
11	34	110	n/a	n/a	n/a	j	10	0.16	2	j	1	0.8871653726091608
11	35	110	n/a	n/a	n/a	j	10	0.17	1	j	1	1.113397127017379
11	36	90	n/a	n/a	n/a	j	10	0.16	1	j	1	1.243173170601949
11	37	90	n/a	n/a	n/a	f	10	0.15	2	f	1	1.366203210316598
11	38	110	n/a	n/a	n/a	j	10	0.16	2	j	1	1.440083955880255
11	39	110	n/a	n/a	n/a	j	10	0.17	2	j	1	1.107848252286203
11	40	110	n/a	n/a	n/a	j	10	0.18	1	j	1	1.134437406319194
11	41	90	n/a	n/a	n/a	f	10	0.17	1	f	1	1.144488843856379
11	42	90	n/a	n/a	n/a	j	10	0.16	1	j	1	1.490714622545056
11	43	90	n/a	n/a	n/a	j	10	0.15	2	j	1	1.477640854427591
11	44	110	n/a	n/a	n/a	j	10	0.16	2	j	1	0.7446702235611156
11	45	110	n/a	n/a	n/a	f	10	0.17	0	f	1	0.795481072505936
11	46	70	n/a	n/a	n/a	j	10	0.18	0	j	1	1.015538730891421
11	47	70	n/a	n/a	n/a	j	10	0.1900000000000001	1	j	1	0.6260201542172581
11	48	90	n/a	n/a	n/a	j	10	0.18	0	j	1	0.6612383887404576
11	49	70	n/a	n/a	n/a	f	10	0.1900000000000001	0	f	1	0.6084549422375858
11	50	70	n/a	n/a	n/a	j	10	0.2000000000000001	0	j	1	0.7471739597385749
11	51	70	n/a	n/a	n/a	j	10	0.2100000000000001	0	j	1	0.6611260597128421
11	52	70	n/a	n/a	n/a	j	10	0.2200000000000001	0	j	1	0.6282610294874758
11	53	70	n/a	n/a	n/a	f	10	0.2300000000000001	0	f	1	0.8311323717935011
11	54	70	n/a	n/a	n/a	j	10	0.2400000000000001	1	j	1	0.633937343256548
11	55	90	n/a	n/a	n/a	j	10	0.2300000000000001	0	j	1	0.6691002686275169
11	56	70	n/a	n/a	n/a	j	10	0.2400000000000001	0	j	1	0.7532947423169389
11	57	70	n/a	n/a	n/a	f	10	0.2500000000000001	1	f	1	0.803010527510196
11	58	90	n/a	n/a	n/a	j	10	0.2400000000000001	1	j	1	0.6701143644750118
11	59	90	n/a	n/a	n/a	j	10	0.2300000000000001	0	j	1	0.6730480294208974
11	60	70	n/a	n/a	n/a	j	10	0.2400000000000001	0	j	1	0.6994319123914465
11	61	70	n/a	n/a	n/a	f	10	0.2500000000000001	0	f	1	0.9415981146739796
11	62	70	n/a	n/a	n/a	j	10	0.2600000000000001	1	j	1	0.8176717249443755
11	63	90	n/a	n/a	n/a	j	10	0.2500000000000001	1	j	1	0.7087018946185708
11	64	90	n/a	n/a	n/a	j	10	0.2400000000000001	0	j	1	0.7225100768264383
11	65	70	n/a	n/a	n/a	f	10	0.2500000000000001	0	f	1	0.7410987929906696
11	66	70	n/a	n/a	n/a	j	10	0.2600000000000001	1	j	1	0.6636409148341045
11	67	90	n/a	n/a	n/a	j	10	0.2500000000000001	0	j	1	0.6763879598584026
11	68	70	n/a	n/a	n/a	j	10	0.2600000000000001	0	j	1	0.7509044754551724
11	69	70	n/a	n/a	n/a	f	10	0.2700000000000001	1	f	1	0.8409300716593862
11	70	90	n/a	n/a	n/a	j	10	0.2600000000000001	1	j	1	0.7714253050507978
11	71	90	n/a	n/a	n/a	j	10	0.2500000000000001	1	j	1	0.7513728924095631
12	0	92	j	1	1.167463232181035	j	12	0.2400000000000001	1	j	1	0.7898358345264569
12	1	92	n/a	n/a	n/a	j	12	0.2300000000000001	1	j	1	0.6976674370234832
12	2	92	n/a	n/a	n/a	f	12	0.2200000000000001	1	j	0	0.7166786693269387
12	3	132	n/a	n/a	n/a	j	12	0.2300000000000001	0	j	1	0.7038563581882045
12	4	72	n/a	n/a	n/a	j	12	0.2400000000000001	0	j	1	0.9221273033181205
12	5	72	n/a	n/a	n/a	j	12	0.2500000000000001	1	j	1	0.6121081961318851
12	6	92	n/a	n/a	n/a	j	12	0.2400000000000001	0	j	1	0.6845674398355186
12	7	72	n/a	n/a	n/a	j	12	0.2500000000000001	0	j	1	0.6874637567671016
12	8	72	n/a	n/a	n/a	f	12	0.2600000000000001	0	f	1	0.6343530170852318
12	9	72	n/a	n/a	n/a	j	12	0.2700000000000001	0	j	1	0.6453341613523662
12	10	72	n/a	n/a	n/a	j	12	0.2800000000000001	0	j	1	0.7284090527100489
12	11	72	n/a	n/a	n/a	j	12	0.2900000000000001	1	j	1	0.635338032967411
12	12	92	n/a	n/a	n/a	j	12	0.2800000000000001	0	j	1	0.6299134611617774
12	13	72	n/a	n/a	n/a	j	12	0.2900000000000001	0	j	1	0.6039429712109268
12	14	72	n/a	n/a	n/a	f	12	0.3000000000000002	0	f	1	0.5352313489420339
12	15	72	n/a	n/a	n/a	j	12	0.3100000000000002	0	j	1	0.6421684260712937
12	16	72	n/a	n/a	n/a	j	12	0.3200000000000002	0	j	1	0.7551852314500138
12	17	72	n/a	n/a	n/a	j	12	0.3300000000000002	1	j	1	0.6380327851511538
12	18	92	n/a	n/a	n/a	j	12	0.3200000000000002	0	j	1	0.6007549981586635
12	19	72	n/a	n/a	n/a	j	12	0.3300000000000002	0	j	1	0.5721521924715489
12	20	72	n/a	n/a	n/a	f	12	0.3400000000000002	0	f	1	0.8299891263013706
12	21	72	n/a	n/a	n/a	j	12	0.3500000000000002	1	j	1	0.6166777570033446
12	22	92	n/a	n/a	n/a	j	12	0.3400000000000002	0	j	1	0.5158691602991894
12	23	72	n/a	n/a	n/a	j	12	0.3500000000000002	0	j	1	0.5266917896224186
12	24	72	n/a	n/a	n/a	j	12	0.3600000000000002	0	j	1	0.5773777654394507
12	25	72	n/a	n/a	n/a	j	12	0.3700000000000002	0	j	1	0.7648209951585159
12	26	72	n/a	n/a	n/a	f	12	0.3800000000000002	1	f	1	0.6479356862837449
12	27	92	n/a	n/a	n/a	j	12	0.3700000000000002	1	j	1	0.6278513426659629
12	28	92	n/a	n/a	n/a	j	12	0.3600000000000002	0	j	1	0.8307970958994702
12	29	72	n/a	n/a	n/a	j	12	0.3700000000000002	1	j	1	0.6733240048633888
12	30	92	n/a	n/a	n/a	j	12	0.3600000000000002	1	j	1	0.6524761671898887
12	31	92	n/a	n/a	n/a	j	12	0.3500000000000002	1	j	1	0.6555666364729404
12	32	92	n/a	n/a	n/a	f	12	0.3400000000000002	1	f	1	0.618521204800345
12	33	92	n/a	n/a	n/a	j	12	0.3300000000000002	0	j	1	0.9174397116294131
12	34	72	n/a	n/a	n/a	j	12	0.3400000000000002	1	j	1	0.6644802453229204
12	35	92	n/a	n/a	n/a	j	12	0.3300000000000002	1	j	1	0.6193707986967638
12	36	92	n/a	n/a	n/a	j	12	0.3200000000000002	0	j	1	0.7020445563830435
12	37	72	n/a	n/a	n/a	j	12	0.3300000000000002	1	j	1	0.7612832061713561
12	38	92	n/a	n/a	n/a	f	12	0.3200000000000002	1	f	1	0.7162584339966998
12	39	92	n/a	n/a	n/a	j	12	0.3100000000000002	1	j	1	0.6632546061882749
12	40	92	n/a	n/a	n/a	j	12	0.3000000000000002	0	j	1	0.6262031875085086
12	41	72	n/a	n/a	n/a	j	12	0.3100000000000002	0	j	1	0.6370674412464723
12	42	72	n/a	n/a	n/a	j	12	0.3200000000000002	0	j	1	0.7435338203795254
12	43	72	n/a	n/a	n/a	j	12	0.3300000000000002	1	j	1	0.5942022912204266
12	44	92	n/a	n/a	n/a	f	12	0.3200000000000002	0	f	1	0.524894242757
12	45	72	n/a	n/a	n/a	j	12	0.3300000000000002	0	j	1	0.6162458325270563
12	46	72	n/a	n/a	n/a	j	12	0.3400000000000002	0	j	1	0.5549564682878554
12	47	72	n/a	n/a	n/a	j	12	0.3500000000000002	0	j	1	0.558008449152112
12	48	72	n/a	n/a	n/a	j	12	0.3600000000000002	0	j	1	0.56895509629976
12	49	72	n/a	n/a	n/a	j	12	0.3700000000000002	0	j	1	0.5880136550404131
12	50	72	n/a	n/a	n/a	f	12	0.3800000000000002	0	f	1	0.4307672175345942
12	51	72	n/a	n/a	n/a	j	12	0.3900000000000002	0	j	1	0.6098696015542373
12	52	72	n/a	n/a	n/a	j	12	0.4000000000000002	1	j	1	0.548650941811502
12	53	92	n/a	n/a	n/a	j	12	0.3900000000000002	0	j	1	0.5600355004426092
12	54	72	n/a	n/a	n/a	j	12	0.4000000000000002	0	j	1	0.546837144298479
12	55	72	n/a	n/a	n/a	j	12	0.4100000000000003	0	j	1	0.548670613556169
12	56	72	n/a	n/a	n/a	f	12	0.4200000000000003	0	f	1	0.423817653208971
12	57	72	n/a	n/a	n/a	j	12	0.4300000000000003	0	j	1	0.5785167344147339
12	58	72	n/a	n/a	n/a	j	12	0.4400000000000003	1	j	1	0.5412554831709713
12	59	92	n/a	n/a	n/a	j	12	0.4300000000000003	0	j	1	0.4566014304291457
12	60	72	n/a	n/a	n/a	j	12	0.4400000000000003	0	j	1	0.546331949532032
12	61	72	n/a	n/a	n/a	j	12	0.4500000000000003	1	j	1	0.5415408668341115
12	62	92	n/a	n/a	n/a	f	12	0.4400000000000003	0	f	1	0.4716814376879483
12	63	72	n/a	n/a	n/a	j	12	0.4500000000000003	0	j	1	0.6404709486523643
12	64	72	n/a	n/a	n/a	j	12	0.4600000000000003	1	j	1	0.7869092969922349
12	65	92	n/a	n/a	n/a	j	12	0.4500000000000003	1	j	1	0.5333323070080951
12	66	92	n/a	n/a	n/a	j	12	0.4400000000000003	0	j	1	0.5993289349135011
12	67	72	n/a	n/a	n/a	j	12	0.4500000000000003	1	j	1	0.7302353945560753
12	68	92	n/a	n/a	n/a	f	12	0.4400000000000003	1	f	1	0.861305215745233
12	69	92	n/a	n/a	n/a	j	12	0.4300000000000003	1	j	1	0.5283507785061374
12	70	92	n/a	n/a	n/a	j	12	0.4200000000000003	0	j	1	0.6662581203272566
12	71	72	n/a	n/a	n/a	j	12	0.4300000000000003	1	j	1	0.5649486052570865
13	0	88	j	1	0.7806302846875042	j	8	0.08000000000000002	1	j	1	0.5781050520017743
13	1	88	n/a	n/a	n/a	j	8	0.07000000000000002	1	j	1	0.5879041772568598
13	2	88	n/a	n/a	n/a	f	8	0.06000000000000002	1	f	1	0.7348232017830014
13	3	88	n/a	n/a	n/a	j	8	0.05000000000000002	2	j	1	0.4728406487265602
13	4	108	n/a	n/a	n/a	j	8	0.06000000000000002	0	j	1	0.5714773640502244
13	5	68	n/a	n/a	n/a	j	8	0.07000000000000002	1	j	1	0.502411934430711
13	6	88	n/a	n/a	n/a	j	8	0.06000000000000002	0	j	1	0.6006723195314407
13	7	68	n/a	n/a	n/a	j	8	0.07000000000000002	1	j	1	0.5560911608627066
13	8	88	n/a	n/a	n/a	f	8	0.06000000000000002	1	f	1	0.5183537948178127
13	9	88	n/a	n/a	n/a	j	8	0.05000000000000002	0	j	1	0.5212717794347554
13	10	68	n/a	n/a	n/a	j	8	0.06000000000000002	0	j	1	0.5715435069287196
13	11	68	n/a	n/a	n/a	j	8	0.07000000000000002	1	j	1	0.4945671603782102
13	12	88	n/a	n/a	n/a	j	8	0.06000000000000002	0	j	1	0.5359606313286349
13	13	68	n/a	n/a	n/a	j	8	0.07000000000000002	1	j	1	0.5525020541390404
13	14	88	n/a	n/a	n/a	f	8	0.06000000000000002	1	f	1	0.5450991828693077
13	15	88	n/a	n/a	n/a	j	8	0.05000000000000002	1	j	1	0.563079213607125
13	16	88	n/a	n/a	n/a	j	8	0.04000000000000001	1	j	1	0.7341612027958035
13	17	88	n/a	n/a	n/a	j	8	0.03000000000000001	2	j	1	0.5201062961714342
13	18	108	n/a	n/a	n/a	j	8	0.04000000000000001	0	j	1	0.6194007340818644
13	19	68	n/a	n/a	n/a	j	8	0.05000000000000002	1	j	1	0.509145679185167
13	20	88	n/a	n/a	n/a	f	8	0.04000000000000001	0	f	1	0.4851626117015257
13	21	68	n/a	n/a	n/a	j	8	0.05000000000000002	0	j	1	0.6043757508741692
13	22	68	n/a	n/a	n/a	j	8	0.06000000000000002	1	j	1	0.6380875241011381
13	23	88	n/a	n/a	n/a	j	8	0.05000000000000002	1	j	1	0.5408361030276865
13	24	88	n/a	n/a	n/a	j	8	0.04000000000000001	0	j	1	0.5861856027040631
13	25	68	n/a	n/a	n/a	j	8	0.05000000000000002	1	j	1	0.6273846362018958
13	26	88	n/a	n/a	n/a	f	8	0.04000000000000001	1	f	1	0.5892358729615808
13	27	88	n/a	n/a	n/a	j	8	0.03000000000000001	1	j	1	0.6002848704811186
13	28	88	n/a	n/a	n/a	j	8	0.02000000000000001	1	j	1	0.5900207494851202
13	29	88	n/a	n/a	n/a	j	8	0.01000000000000001	1	j	1	0.6081581545295194
13	30	88	n/a	n/a	n/a	j	8	1.040834085586084e-17	2	j	1	0.5956089678220451
13	31	108	n/a	n/a	n/a	j	8	0.01000000000000001	1	j	1	0.5584976783720776
13	32	88	n/a	n/a	n/a	f	8	1.040834085586084e-17	0	f	1	0.5953426857013255
13	33	68	n/a	n/a	n/a	j	8	0.01000000000000001	1	j	1	0.5969101579394192
13	34	88	n/a	n/a	n/a	j	8	1.040834085586084e-17	2	j	1	0.5760460697347298
13	35	108	n/a	n/a	n/a	j	8	0.01000000000000001	0	j	1	0.7386982623720542
13	36	68	n/a	n/a	n/a	j	8	0.02000000000000001	2	j	1	0.6377556693041697
13	37	108	n/a	n/a	n/a	j	8	0.03000000000000001	2	j	1	0.5689228802220896
13	38	108	n/a	n/a	n/a	f	8	0.04000000000000001	1	f	1	0.7399144931696355
13	39	88	n/a	n/a	n/a	j	8	0.03000000000000001	2	j	1	0.5663920596707612
13	40	108	n/a	n/a	n/a	j	8	0.04000000000000001	1	j	1	0.5386727746808901
13	41	88	n/a	n/a	n/a	j	8	0.03000000000000001	0	j	1	0.5404831509804353
13	42	68	n/a	n/a	n/a	j	8	0.04000000000000001	0	j	1	0.6075460477732122
13	43	68	n/a	n/a	n/a	j	8	0.05000000000000002	1	j	1	0.5135476019931957
13	44	88	n/a	n/a	n/a	f	8	0.04000000000000001	0	f	1	0.5164356512250379
13	45	68	n/a	n/a	n/a	j	8	0.05000000000000002	0	j	1	0.5663735282141715
13	46	68	n/a	n/a	n/a	j	8	0.06000000000000002	1	j	1	0.5464149132603779
13	47	88	n/a	n/a	n/a	j	8	0.05000000000000002	1	j	1	0.5642558155814186
13	48	88	n/a	n/a	n/a	j	8	0.04000000000000001	1	j	1	0.5652987062931061
13	49	88	n/a	n/a	n/a	j	8	0.03000000000000001	1	j	1	0.5522289295913652
13	50	88	n/a	n/a	n/a	f	8	0.02000000000000001	0	f	1	0.4671814406756312
13	51	68	n/a	n/a	n/a	j	8	0.03000000000000001	0	j	1	0.8061044178903103
13	52	68	n/a	n/a	n/a	j	8	0.04000000000000001	2	j	1	0.5052007692866027
13	53	108	n/a	n/a	n/a	j	8	0.05000000000000002	0	j	1	0.5000510327517986
13	54	68	n/a	n/a	n/a	j	8	0.06000000000000002	0	j	1	0.5671980335609987
13	55	68	n/a	n/a	n/a	j	8	0.07000000000000002	1	j	1	0.5141408924246207
13	56	88	n/a	n/a	n/a	f	8	0.06000000000000002	0	f	1	0.5650797507259995
13	57	68	n/a	n/a	n/a	j	8	0.07000000000000002	1	j	1	0.7682364768115804
13	58	88	n/a	n/a	n/a	j	8	0.06000000000000002	2	j	1	0.4350248805712909
13	59	108	n/a	n/a	n/a	j	8	0.07000000000000002	0	j	1	0.589694881811738
13	60	68	n/a	n/a	n/a	j	8	0.08000000000000002	1	j	1	0.5681126299314201
13	61	88	n/a	n/a	n/a	j	8	0.07000000000000002	1	j	1	0.513708112644963
13	62	88	n/a	n/a	n/a	f	8	0.06000000000000002	0	f	1	0.4603561795083806
13	63	68	n/a	n/a	n/a	j	8	0.07000000000000002	0	j	1	0.5436460352502763
13	64	68	n/a	n/a	n/a	j	8	0.08000000000000002	1	j	1	0.5938017275184393
13	65	88	n/a	n/a	n/a	j	8	0.07000000000000002	1	j	1	0.835766079952009
13	66	88	n/a	n/a	n/a	j	8	0.06000000000000002	2	j	1	0.5823553025256842
13	67	108	n/a	n/a	n/a	j	8	0.07000000000000002	1	j	1	0.4498987614642829
13	68	88	n/a	n/a	n/a	f	8	0.06000000000000002	0	f	1	0.4336809256346896
13	69	68	n/a	n/a	n/a	j	8	0.07000000000000002	0	j	1	0.4729364418890327
13	70	68	n/a	n/a	n/a	j	8	0.08000000000000002	0	j	1	0.5198363077361137
13	71	68	n/a	n/a	n/a	j	8	0.09000000000000001	1	j	1	0.4776981591712683
14	0	81	f	1	0.0766051480313763	f	1	0.1	1	f	1	0.4497639097971842
14	1	81	n/a	n/a	n/a	j	1	0.09000000000000002	1	j	1	0.4584100961219519
14	2	81	n/a	n/a	n/a	f	1	0.08000000000000003	1	f	1	0.3886946416459978
14	3	81	n/a	n/a	n/a	f	1	0.07000000000000003	1	f	1	0.3901720228604972
14	4	81	n/a	n/a	n/a	f	1	0.06000000000000003	1	f	1	0.4409663360565901
14	5	81	n/a	n/a	n/a	j	1	0.05000000000000003	2	j	1	0.4267507479526103
14	6	101	n/a	n/a	n/a	f	1	0.06000000000000003	1	f	1	0.4056907969061285
14	7	81	n/a	n/a	n/a	f	1	0.05000000000000003	1	f	1	0.414766626781784
14	8	81	n/a	n/a	n/a	f	1	0.04000000000000003	1	f	1	0.4731961666839197
14	9	81	n/a	n/a	n/a	j	1	0.03000000000000003	2	j	1	0.4115923385834321
14	10	101	n/a	n/a	n/a	f	1	0.04000000000000003	1	f	1	0.3982539989519864
14	11	81	n/a	n/a	n/a	f	1	0.03000000000000003	1	f	1	0.4175500448327512
14	12	81	n/a	n/a	n/a	f	1	0.02000000000000002	2	f	1	0.4445899397833273
14	13	101	n/a	n/a	n/a	j	1	0.03000000000000003	2	j	1	0.3855568460421637
14	14	101	n/a	n/a	n/a	f	1	0.04000000000000003	1	f	1	0.4224066999740899
14	15	81	n/a	n/a	n/a	f	1	0.03000000000000003	2	f	1	0.409568993607536
14	16	101	n/a	n/a	n/a	f	1	0.04000000000000003	1	f	1	0.4343765663215891
14	17	81	n/a	n/a	n/a	j	1	0.03000000000000003	2	j	1	0.4047992933774367
14	18	101	n/a	n/a	n/a	f	1	0.04000000000000003	1	f	1	0.4533607141347602
14	19	81	n/a	n/a	n/a	f	1	0.03000000000000003	2	f	1	0.3275794726796448
14	20	101	n/a	n/a	n/a	f	1	0.04000000000000003	0	f	1	0.4664590008324012
14	21	61	n/a	n/a	n/a	j	1	0.05000000000000003	2	j	1	0.4383066509617493
14	22	101	n/a	n/a	n/a	f	1	0.06000000000000003	1	f	1	0.4884135914035141
14	23	81	n/a	n/a	n/a	f	1	0.05000000000000003	2	f	1	0.3313461958896369
14	24	101	n/a	n/a	n/a	f	1	0.06000000000000003	1	f	1	0.4622378303902224
14	25	81	n/a	n/a	n/a	j	1	0.05000000000000003	2	j	1	0.3529307284625247
14	26	101	n/a	n/a	n/a	f	1	0.06000000000000003	1	f	1	0.3722886407049373
14	27	81	n/a	n/a	n/a	f	1	0.05000000000000003	1	f	1	0.3911684425547719
14	28	81	n/a	n/a	n/a	f	1	0.04000000000000003	1	f	1	0.442208795924671
14	29	81	n/a	n/a	n/a	j	1	0.03000000000000003	2	j	1	0.3900366009911522
14	30	101	n/a	n/a	n/a	f	1	0.04000000000000003	1	f	1	0.3881834598723799
14	31	81	n/a	n/a	n/a	f	1	0.03000000000000003	1	f	1	0.3701304440619424
14	32	81	n/a	n/a	n/a	f	1	0.02000000000000002	0	f	1	0.4301585319917649
14	33	61	n/a	n/a	n/a	j	1	0.03000000000000003	2	j	1	0.4421805712627247
14	34	101	n/a	n/a	n/a	f	1	0.04000000000000003	2	f	1	0.3210800790693611
14	35	101	n/a	n/a	n/a	f	1	0.05000000000000003	0	f	1	0.42808957118541
14	36	61	n/a	n/a	n/a	f	1	0.06000000000000003	1	f	1	0.402016160544008
14	37	81	n/a	n/a	n/a	j	1	0.05000000000000003	1	j	1	0.4367032562149689
14	38	81	n/a	n/a	n/a	f	1	0.04000000000000003	2	f	1	0.345105626154691
14	39	101	n/a	n/a	n/a	f	1	0.05000000000000003	1	f	1	0.4599174126051366
14	40	81	n/a	n/a	n/a	f	1	0.04000000000000003	2	f	1	0.414015106856823
14	41	101	n/a	n/a	n/a	j	1	0.05000000000000003	1	j	1	0.3858570549637079
14	42	81	n/a	n/a	n/a	f	1	0.04000000000000003	1	f	1	0.3820048022316769
14	43	81	n/a	n/a	n/a	f	1	0.03000000000000003	1	f	1	0.3938897090265527
14	44	81	n/a	n/a	n/a	f	1	0.02000000000000002	1	f	1	0.4206091531086713
14	45	81	n/a	n/a	n/a	j	1	0.01000000000000002	2	j	1	0.3798802471719682
14	46	101	n/a	n/a	n/a	f	1	0.02000000000000002	1	f	1	0.4147130282362923
14	47	81	n/a	n/a	n/a	f	1	0.01000000000000002	2	f	1	0.4241190024185926
14	48	101	n/a	n/a	n/a	f	1	0.02000000000000002	2	f	1	0.4506805018754676
14	49	101	n/a	n/a	n/a	j	1	0.03000000000000003	2	j	1	0.3496449666563421
14	50	101	n/a	n/a	n/a	f	1	0.04000000000000003	1	f	1	0.4088930247817189
14	51	81	n/a	n/a	n/a	f	1	0.03000000000000003	1	f	1	0.4345767054473981
14	52	81	n/a	n/a	n/a	f	1	0.02000000000000002	2	f	1	0.4693108424544334
14	53	101	n/a	n/a	n/a	j	1	0.03000000000000003	2	j	1	0.3465436636470258
14	54	101	n/a	n/a	n/a	f	1	0.04000000000000003	0	f	1	0.4215257451869547
14	55	61	n/a	n/a	n/a	f	1	0.05000000000000003	1	f	1	0.3047122813295573
14	56	81	n/a	n/a	n/a	f	1	0.04000000000000003	0	f	1	0.4344635213492438
14	57	61	n/a	n/a	n/a	j	1	0.05000000000000003	1	j	1	0.3483662992948666
14	58	81	n/a	n/a	n/a	f	1	0.04000000000000003	1	f	1	0.3695648083230481
14	59	81	n/a	n/a	n/a	f	1	0.03000000000000003	1	f	1	0.3640455837594345
14	60	81	n/a	n/a	n/a	f	1	0.02000000000000002	0	f	1	0.3914732129778713
14	61	61	n/a	n/a	n/a	j	1	0.03000000000000003	1	j	1	0.3802446031477302
14	62	81	n/a	n/a	n/a	f	1	0.02000000000000002	1	f	1	0.3829835458891466
14	63	81	n/a	n/a	n/a	f	1	0.01000000000000002	1	f	1	0.3383165723644197
14	64	81	n/a	n/a	n/a	f	1	2.42861286636753e-17	0	f	1	0.4213452778058127
14	65	61	n/a	n/a	n/a	j	1	0.01000000000000002	2	j	1	0.3434591816039756
14	66	101	n/a	n/a	n/a	f	1	0.02000000000000002	0	f	1	0.3714185196440667
14	67	61	n/a	n/a	n/a	f	1	0.03000000000000003	1	f	1	0.3973185903159901
14	68	81	n/a	n/a	n/a	f	1	0.02000000000000002	1	f	1	0.3603649603901431
14	69	81	n/a	n/a	n/a	j	1	0.01000000000000002	0	j	1	0.3872346516000107
14	70	61	n/a	n/a	n/a	f	1	0.02000000000000002	1	f	1	0.3572639425983652
14	71	81	n/a	n/a	n/a	f	1	0.01000000000000002	0	f	1	0.4316227985545993
15	0	67	f	1	0.5819459008052945	f	7	0.08000000000000002	0	f	1	0.5209037170279771
15	1	67	n/a	n/a	n/a	f	7	0.09000000000000001	1	f	1	0.4912551696179435
15	2	87	n/a	n/a	n/a	j	7	0.08000000000000002	0	j	1	0.4706550824921578
15	3	67	n/a	n/a	n/a	f	7	0.09000000000000001	0	f	1	0.4752129544503987
15	4	67	n/a	n/a	n/a	f	7	0.1	0	f	1	0.5180869424948469
15	5	67	n/a	n/a	n/a	f	7	0.11	1	f	1	0.4662944988813251
15	6	87	n/a	n/a	n/a	f	7	0.1	1	j	0	0.5726186138344929
15	7	127	n/a	n/a	n/a	f	7	0.11	1	f	1	0.4028648991370574
15	8	87	n/a	n/a	n/a	j	7	0.1	1	f	0	0.484828190994449
15	9	127	n/a	n/a	n/a	f	7	0.11	1	f	1	0.7292096096789464
15	10	87	n/a	n/a	n/a	f	7	0.1	2	f	1	0.4709005524637178
15	11	107	n/a	n/a	n/a	f	7	0.11	0	f	1	0.4038653103634715
15	12	67	n/a	n/a	n/a	f	7	0.12	0	f	1	0.4527540242997929
15	13	67	n/a	n/a	n/a	f	7	0.13	0	f	1	0.5437823123065755
15	14	67	n/a	n/a	n/a	j	7	0.14	1	j	1	0.4028936941176653
15	15	87	n/a	n/a	n/a	f	7	0.13	0	f	1	0.4377182073658332
15	16	67	n/a	n/a	n/a	f	7	0.14	0	f	1	0.4878399729495868
15	17	67	n/a	n/a	n/a	f	7	0.15	1	f	1	0.3885024851188064
15	18	87	n/a	n/a	n/a	f	7	0.14	0	f	1	0.4705638509476557
15	19	67	n/a	n/a	n/a	f	7	0.15	1	f	1	0.4747887277044356
15	20	87	n/a	n/a	n/a	j	7	0.14	1	j	1	0.4245238425210118
15	21	87	n/a	n/a	n/a	f	7	0.13	0	f	1	0.421577918343246
15	22	67	n/a	n/a	n/a	f	7	0.14	0	f	1	0.4486942196963355
15	23	67	n/a	n/a	n/a	f	7	0.15	1	f	1	0.4195283441804349
15	24	87	n/a	n/a	n/a	f	7	0.14	0	f	1	0.4630996836349368
15	25	67	n/a	n/a	n/a	f	7	0.15	1	f	1	0.4584856473375112
15	26	87	n/a	n/a	n/a	j	7	0.14	1	j	1	0.4144017004873604
15	27	87	n/a	n/a	n/a	f	7	0.13	0	f	1	0.4254783526994288
15	28	67	n/a	n/a	n/a	f	7	0.14	0	f	1	0.4440465418156236
15	29	67	n/a	n/a	n/a	f	7	0.15	1	f	1	0.4055106145096943
15	30	87	n/a	n/a	n/a	f	7	0.14	0	f	1	0.441409379360266
15	31	67	n/a	n/a	n/a	f	7	0.15	1	f	1	0.4293123591924086
15	32	87	n/a	n/a	n/a	j	7	0.14	0	j	1	0.3528919550590217
15	33	67	n/a	n/a	n/a	f	7	0.15	0	f	1	0.4909886022796854
15	34	67	n/a	n/a	n/a	f	7	0.16	1	f	1	0.4062829468166456
15	35	87	n/a	n/a	n/a	f	7	0.15	0	f	1	0.3599267638055608
15	36	67	n/a	n/a	n/a	f	7	0.16	0	f	1	0.5142167286248878
15	37	67	n/a	n/a	n/a	f	7	0.17	1	f	1	0.5012276347260922
15	38	87	n/a	n/a	n/a	j	7	0.16	1	j	1	0.3996093578170985
15	39	87	n/a	n/a	n/a	f	7	0.15	0	f	1	0.4197706781560555
15	40	67	n/a	n/a	n/a	f	7	0.16	0	f	1	0.4301830503391102
15	41	67	n/a	n/a	n/a	f	7	0.17	1	f	1	0.4581224316498265
15	42	87	n/a	n/a	n/a	f	7	0.16	1	f	1	0.453118380275555
15	43	87	n/a	n/a	n/a	f	7	0.15	1	f	1	0.4666631314903498
15	44	87	n/a	n/a	n/a	j	7	0.14	1	j	1	0.4300881125964224
15	45	87	n/a	n/a	n/a	f	7	0.13	0	f	1	0.4725492778234184
15	46	67	n/a	n/a	n/a	f	7	0.14	1	f	1	0.4599071490811184
15	47	87	n/a	n/a	n/a	f	7	0.13	0	f	1	0.4309166092425585
15	48	67	n/a	n/a	n/a	f	7	0.14	0	f	1	0.4807703820988536
15	49	67	n/a	n/a	n/a	f	7	0.15	1	f	1	0.5718565451679751
15	50	87	n/a	n/a	n/a	j	7	0.14	1	j	1	0.429655903019011
15	51	87	n/a	n/a	n/a	f	7	0.13	0	f	1	0.3749027100857347
15	52	67	n/a	n/a	n/a	f	7	0.14	0	f	1	0.4337758633773774
15	53	67	n/a	n/a	n/a	f	7	0.15	0	f	1	0.3634950583800673
15	54	67	n/a	n/a	n/a	f	7	0.16	0	f	1	0.4788146055070683
15	55	67	n/a	n/a	n/a	f	7	0.17	1	f	1	0.4485778994858265
15	56	87	n/a	n/a	n/a	j	7	0.16	1	j	1	0.3583364837104455
15	57	87	n/a	n/a	n/a	f	7	0.15	0	f	1	0.4537196534220129
15	58	67	n/a	n/a	n/a	f	7	0.16	1	f	1	0.4217435606988147
15	59	87	n/a	n/a	n/a	f	7	0.15	0	f	1	0.4175853970227763
15	60	67	n/a	n/a	n/a	f	7	0.16	0	f	1	0.4031813585897908
15	61	67	n/a	n/a	n/a	f	7	0.17	0	f	1	0.4506095123942941
15	62	67	n/a	n/a	n/a	j	7	0.18	1	j	1	0.3911647362401709
15	63	87	n/a	n/a	n/a	f	7	0.17	0	f	1	0.3315469052176923
15	64	67	n/a	n/a	n/a	f	7	0.18	0	f	1	0.4647583874175325
15	65	67	n/a	n/a	n/a	f	7	0.1900000000000001	1	f	1	0.4541726750321686
15	66	87	n/a	n/a	n/a	f	7	0.18	1	f	1	0.4404905064729974
15	67	87	n/a	n/a	n/a	f	7	0.17	1	f	1	0.3954631683882326
15	68	87	n/a	n/a	n/a	j	7	0.16	0	j	1	0.3903037384152412
15	69	67	n/a	n/a	n/a	f	7	0.17	0	f	1	0.4432804817333817
15	70	67	n/a	n/a	n/a	f	7	0.18	1	f	1	0.3913127024425194
15	71	87	n/a	n/a	n/a	f	7	0.17	0	f	1	0.4133046410279348
16	0	65	f	1	0.6518999829422683	f	5	0.08000000000000002	0	f	1	0.5673331702128053
16	1	65	n/a	n/a	n/a	j	5	0.09000000000000001	0	f	0	0.5893844092497602
16	2	125	n/a	n/a	n/a	f	5	0.08000000000000002	1	f	1	0.5952403353294358
16	3	85	n/a	n/a	n/a	f	5	0.07000000000000002	1	f	1	0.5742083238437772
16	4	85	n/a	n/a	n/a	f	5	0.06000000000000002	1	f	1	0.6159148330334574
16	5	85	n/a	n/a	n/a	j	5	0.05000000000000002	1	j	1	0.5136217277031392
16	6	85	n/a	n/a	n/a	f	5	0.04000000000000001	0	f	1	0.5730399896856397
16	7	65	n/a	n/a	n/a	f	5	0.05000000000000002	1	f	1	0.5681246040621772
16	8	85	n/a	n/a	n/a	f	5	0.04000000000000001	1	f	1	0.6268899901770055
16	9	85	n/a	n/a	n/a	j	5	0.03000000000000001	2	j	1	0.489084713626653
16	10	105	n/a	n/a	n/a	f	5	0.04000000000000001	0	f	1	0.5568959942320362
16	11	65	n/a	n/a	n/a	f	5	0.05000000000000002	1	f	1	0.6241296650841832
16	12	85	n/a	n/a	n/a	f	5	0.04000000000000001	1	f	1	0.5547674478730187
16	13	85	n/a	n/a	n/a	j	5	0.03000000000000001	1	f	0	0.6219965571071953
16	14	125	n/a	n/a	n/a	f	5	0.04000000000000001	1	f	1	0.64893666759599
16	15	85	n/a	n/a	n/a	f	5	0.03000000000000001	2	f	1	0.5317825108068064
16	16	105	n/a	n/a	n/a	f	5	0.04000000000000001	0	f	1	0.630839746678248
16	17	65	n/a	n/a	n/a	j	5	0.05000000000000002	1	j	1	0.5225484510883689
16	18	85	n/a	n/a	n/a	f	5	0.04000000000000001	0	f	1	0.5658244283404201
16	19	65	n/a	n/a	n/a	f	5	0.05000000000000002	1	f	1	0.5929481423227116
16	20	85	n/a	n/a	n/a	f	5	0.04000000000000001	1	f	1	0.6145953966770321
16	21	85	n/a	n/a	n/a	j	5	0.03000000000000001	1	j	1	0.5684581694658846
16	22	85	n/a	n/a	n/a	f	5	0.02000000000000001	1	f	1	0.5634008047636598
16	23	85	n/a	n/a	n/a	f	5	0.01000000000000001	0	f	1	0.5986210348783061
16	24	65	n/a	n/a	n/a	f	5	0.02000000000000001	1	f	1	0.6095035349717364
16	25	85	n/a	n/a	n/a	j	5	0.01000000000000001	2	j	1	0.55538896296639
16	26	105	n/a	n/a	n/a	f	5	0.02000000000000001	0	f	1	0.5676108562620357
16	27	65	n/a	n/a	n/a	f	5	0.03000000000000001	1	f	1	0.6109957412118092
16	28	85	n/a	n/a	n/a	f	5	0.02000000000000001	2	f	1	0.5974635344464332
16	29	105	n/a	n/a	n/a	j	5	0.03000000000000001	1	j	1	0.5218325684545562
16	30	85	n/a	n/a	n/a	f	5	0.02000000000000001	0	f	1	0.5584492116468027
16	31	65	n/a	n/a	n/a	f	5	0.03000000000000001	1	f	1	0.5608275044942275
16	32	85	n/a	n/a	n/a	f	5	0.02000000000000001	0	f	1	0.5961706121452153
16	33	65	n/a	n/a	n/a	j	5	0.03000000000000001	1	j	1	0.5432788281468675
16	34	85	n/a	n/a	n/a	f	5	0.02000000000000001	0	f	1	0.534052181057632
16	35	65	n/a	n/a	n/a	f	5	0.03000000000000001	0	f	1	0.5932503467192873
16	36	65	n/a	n/a	n/a	f	5	0.04000000000000001	1	f	1	0.6200849707238376
16	37	85	n/a	n/a	n/a	j	5	0.03000000000000001	1	j	1	0.4790486714337021
16	38	85	n/a	n/a	n/a	f	5	0.02000000000000001	0	f	1	0.5700247864006087
16	39	65	n/a	n/a	n/a	f	5	0.03000000000000001	1	f	1	0.5879400996491313
16	40	85	n/a	n/a	n/a	f	5	0.02000000000000001	1	f	1	0.6391275639180094
16	41	85	n/a	n/a	n/a	j	5	0.01000000000000001	2	j	1	0.4829810368828475
16	42	105	n/a	n/a	n/a	f	5	0.02000000000000001	0	f	1	0.5329459982458502
16	43	65	n/a	n/a	n/a	f	5	0.03000000000000001	0	f	1	0.5840445118956268
16	44	65	n/a	n/a	n/a	f	5	0.04000000000000001	1	f	1	0.603335996158421
16	45	85	n/a	n/a	n/a	j	5	0.03000000000000001	1	j	1	0.5105968312127516
16	46	85	n/a	n/a	n/a	f	5	0.02000000000000001	0	f	1	0.5627385206753388
16	47	65	n/a	n/a	n/a	f	5	0.03000000000000001	1	f	1	0.6146809261990711
16	48	85	n/a	n/a	n/a	f	5	0.02000000000000001	2	f	1	0.6027729264460504
16	49	105	n/a	n/a	n/a	j	5	0.03000000000000001	1	j	1	0.5037915267748758
16	50	85	n/a	n/a	n/a	f	5	0.02000000000000001	0	f	1	0.5625589084811509
16	51	65	n/a	n/a	n/a	f	5	0.03000000000000001	1	f	1	0.6215284251375124
16	52	85	n/a	n/a	n/a	f	5	0.02000000000000001	2	f	1	0.544720001751557
16	53	105	n/a	n/a	n/a	j	5	0.03000000000000001	0	j	1	0.5302509609609842
16	54	65	n/a	n/a	n/a	f	5	0.04000000000000001	0	f	1	0.5245632431469858
16	55	65	n/a	n/a	n/a	f	5	0.05000000000000002	0	f	1	0.5742291361093521
16	56	65	n/a	n/a	n/a	f	5	0.06000000000000002	1	f	1	0.5942598810652271
16	57	85	n/a	n/a	n/a	j	5	0.05000000000000002	1	j	1	0.5321981846354902
16	58	85	n/a	n/a	n/a	f	5	0.04000000000000001	0	f	1	0.5198984591988847
16	59	65	n/a	n/a	n/a	f	5	0.05000000000000002	0	f	1	0.6270091613987461
16	60	65	n/a	n/a	n/a	f	5	0.06000000000000002	1	f	1	0.5513254520483315
16	61	85	n/a	n/a	n/a	j	5	0.05000000000000002	1	j	1	0.5144085999345407
16	62	85	n/a	n/a	n/a	f	5	0.04000000000000001	0	f	1	0.4823076339671388
16	63	65	n/a	n/a	n/a	f	5	0.05000000000000002	0	f	1	0.5982449898729101
16	64	65	n/a	n/a	n/a	f	5	0.06000000000000002	1	f	1	0.5612046900205314
16	65	85	n/a	n/a	n/a	j	5	0.05000000000000002	1	j	1	0.5170925185084343
16	66	85	n/a	n/a	n/a	f	5	0.04000000000000001	0	f	1	0.5442991961026564
16	67	65	n/a	n/a	n/a	f	5	0.05000000000000002	1	f	1	0.6121492503443733
16	68	85	n/a	n/a	n/a	f	5	0.04000000000000001	1	f	1	0.5361171504482627
16	69	85	n/a	n/a	n/a	j	5	0.03000000000000001	0	j	1	0.5470304411137477
16	70	65	n/a	n/a	n/a	f	5	0.04000000000000001	0	f	1	0.4849661787739024
16	71	65	n/a	n/a	n/a	f	5	0.05000000000000002	0	f	1	0.5920899952761829
17	0	69	f	1	0.7909557019593194	f	9	0.1	0	f	1	0.8422586312517524
17	1	69	n/a	n/a	n/a	j	9	0.11	0	j	1	0.9889239179901779
17	2	69	n/a	n/a	n/a	f	9	0.12	1	f	1	0.8359251649817452
17	3	89	n/a	n/a	n/a	f	9	0.11	0	f	1	0.9262079201871529
17	4	69	n/a	n/a	n/a	f	9	0.12	1	f	1	0.9168415747117251
17	5	89	n/a	n/a	n/a	j	9	0.11	1	j	1	0.755212600925006
17	6	89	n/a	n/a	n/a	f	9	0.1	0	f	1	0.8470040980027989
17	7	69	n/a	n/a	n/a	f	9	0.11	0	f	1	0.9089816904161125
17	8	69	n/a	n/a	n/a	f	9	0.12	1	f	1	0.8482571064960212
17	9	89	n/a	n/a	n/a	j	9	0.11	0	j	1	0.9400471781846136
17	10	69	n/a	n/a	n/a	f	9	0.12	1	f	1	0.8429514209274203
17	11	89	n/a	n/a	n/a	f	9	0.11	0	f	1	0.8835674278670922
17	12	69	n/a	n/a	n/a	f	9	0.12	1	f	1	0.8886513066245243
17	13	89	n/a	n/a	n/a	j	9	0.11	1	j	1	0.7363963760435581
17	14	89	n/a	n/a	n/a	f	9	0.1	0	f	1	0.765469879610464
17	15	69	n/a	n/a	n/a	f	9	0.11	0	f	1	0.7607976831495762
17	16	69	n/a	n/a	n/a	f	9	0.12	0	f	1	0.7236584541387856
17	17	69	n/a	n/a	n/a	j	9	0.13	0	j	1	0.7682065414264798
17	18	69	n/a	n/a	n/a	f	9	0.14	0	f	1	0.7285701333312318
17	19	69	n/a	n/a	n/a	f	9	0.15	0	f	1	0.7115426174132153
17	20	69	n/a	n/a	n/a	f	9	0.16	0	f	1	0.7095104343025014
17	21	69	n/a	n/a	n/a	j	9	0.17	0	j	1	0.7564513544784859
17	22	69	n/a	n/a	n/a	f	9	0.18	0	f	1	0.6972594608087093
17	23	69	n/a	n/a	n/a	f	9	0.1900000000000001	0	f	1	0.7321418491192162
17	24	69	n/a	n/a	n/a	f	9	0.2000000000000001	0	f	1	0.6493583284318447
17	25	69	n/a	n/a	n/a	j	9	0.2100000000000001	0	f	0	0.7180648188805208
17	26	129	n/a	n/a	n/a	f	9	0.2200000000000001	0	f	1	0.6673862555762753
17	27	69	n/a	n/a	n/a	f	9	0.2300000000000001	0	f	1	0.8141843983903527
17	28	69	n/a	n/a	n/a	f	9	0.2400000000000001	0	j	0	0.6712769967271015
17	29	129	n/a	n/a	n/a	j	9	0.2300000000000001	0	f	0	0.8917349334806204
17	30	129	n/a	n/a	n/a	f	9	0.2400000000000001	1	f	1	0.837476386805065
17	31	89	n/a	n/a	n/a	f	9	0.2300000000000001	1	f	1	0.801715609501116
17	32	89	n/a	n/a	n/a	f	9	0.2200000000000001	1	f	1	0.9931428075069562
17	33	89	n/a	n/a	n/a	j	9	0.2100000000000001	1	j	1	0.6309155828785151
17	34	89	n/a	n/a	n/a	f	9	0.2000000000000001	0	f	1	0.5768945231102407
17	35	69	n/a	n/a	n/a	f	9	0.2100000000000001	0	f	1	0.5880524285603315
17	36	69	n/a	n/a	n/a	f	9	0.2200000000000001	0	f	1	0.6468500307528302
17	37	69	n/a	n/a	n/a	j	9	0.2300000000000001	0	j	1	1.290429409826174
17	38	69	n/a	n/a	n/a	f	9	0.2400000000000001	2	f	1	0.4683141376590356
17	39	109	n/a	n/a	n/a	f	9	0.2500000000000001	0	f	1	0.5806544040096924
17	40	69	n/a	n/a	n/a	f	9	0.2600000000000001	0	f	1	0.6568002582062036
17	41	69	n/a	n/a	n/a	j	9	0.2700000000000001	0	j	1	0.5816645084414631
17	42	69	n/a	n/a	n/a	f	9	0.2800000000000001	0	f	1	0.6537043721182272
17	43	69	n/a	n/a	n/a	f	9	0.2900000000000001	0	f	1	0.6345451736124232
17	44	69	n/a	n/a	n/a	f	9	0.3000000000000002	0	f	1	0.7271822732873261
17	45	69	n/a	n/a	n/a	j	9	0.3100000000000002	1	j	1	0.6766616546083242
17	46	89	n/a	n/a	n/a	f	9	0.3000000000000002	0	f	1	0.6976206809049472
17	47	69	n/a	n/a	n/a	f	9	0.3100000000000002	1	f	1	0.6084951411467046
17	48	89	n/a	n/a	n/a	f	9	0.3000000000000002	0	f	1	0.8395624534459785
17	49	69	n/a	n/a	n/a	j	9	0.3100000000000002	1	j	1	0.6500596711412072
17	50	89	n/a	n/a	n/a	f	9	0.3000000000000002	0	f	1	0.9052993564400822
17	51	69	n/a	n/a	n/a	f	9	0.3100000000000002	1	f	1	0.5252206806326285
17	52	89	n/a	n/a	n/a	f	9	0.3000000000000002	0	f	1	0.8157621342688799
17	53	69	n/a	n/a	n/a	j	9	0.3100000000000002	1	j	1	0.5821668523130938
17	54	89	n/a	n/a	n/a	f	9	0.3000000000000002	0	f	1	0.4931231358787045
17	55	69	n/a	n/a	n/a	f	9	0.3100000000000002	0	f	1	0.5456556954886764
17	56	69	n/a	n/a	n/a	f	9	0.3200000000000002	0	f	1	0.630597697920166
17	57	69	n/a	n/a	n/a	j	9	0.3300000000000002	0	j	1	0.6210314983036369
17	58	69	n/a	n/a	n/a	f	9	0.3400000000000002	0	f	1	0.6001166624482721
17	59	69	n/a	n/a	n/a	f	9	0.3500000000000002	0	f	1	0.7057642382569611
17	60	69	n/a	n/a	n/a	f	9	0.3600000000000002	1	f	1	0.5739052640274167
17	61	89	n/a	n/a	n/a	j	9	0.3500000000000002	0	j	1	0.5697915757773444
17	62	69	n/a	n/a	n/a	f	9	0.3600000000000002	0	f	1	0.5667752322042361
17	63	69	n/a	n/a	n/a	f	9	0.3700000000000002	0	f	1	0.5961828713770956
17	64	69	n/a	n/a	n/a	f	9	0.3800000000000002	0	f	1	0.5617956994101405
17	65	69	n/a	n/a	n/a	j	9	0.3900000000000002	0	j	1	0.5745128091657534
17	66	69	n/a	n/a	n/a	f	9	0.4000000000000002	0	f	1	0.6017796426312998
17	67	69	n/a	n/a	n/a	f	9	0.4100000000000003	0	j	0	0.6318142138188705
17	68	129	n/a	n/a	n/a	f	9	0.4000000000000002	1	f	1	0.658636293374002
17	69	89	n/a	n/a	n/a	j	9	0.3900000000000002	1	j	1	0.7726435314398259
17	70	89	n/a	n/a	n/a	f	9	0.3800000000000002	1	f	1	0.6554725539172068
17	71	89	n/a	n/a	n/a	f	9	0.3700000000000002	1	f	1	0.8705139016965404
18	0	82	j	1	0.1221490849275142	j	2	0.02000000000000002	2	j	1	0.5826535156229511
18	1	102	n/a	n/a	n/a	f	2	0.03000000000000003	2	f	1	0.4151902834419161
18	2	102	n/a	n/a	n/a	j	2	0.04000000000000003	1	j	1	0.4205016709165648
18	3	82	n/a	n/a	n/a	j	2	0.03000000000000003	2	j	1	0.4307794767664745
18	4	102	n/a	n/a	n/a	j	2	0.04000000000000003	2	j	1	0.4575419707689434
18	5	102	n/a	n/a	n/a	f	2	0.05000000000000003	2	f	1	0.4686015170300379
18	6	102	n/a	n/a	n/a	j	2	0.06000000000000003	2	j	1	0.4484909444581717
18	7	102	n/a	n/a	n/a	j	2	0.07000000000000003	1	j	1	0.4925107440212741
18	8	82	n/a	n/a	n/a	j	2	0.06000000000000003	2	j	1	0.4965443194378167
18	9	102	n/a	n/a	n/a	f	2	0.07000000000000003	2	f	1	0.4373760890448466
18	10	102	n/a	n/a	n/a	j	2	0.08000000000000003	1	j	1	0.4632658960763365
18	11	82	n/a	n/a	n/a	j	2	0.07000000000000003	2	j	1	0.4646668708883226
18	12	102	n/a	n/a	n/a	j	2	0.08000000000000003	1	j	1	0.5301055605523288
18	13	82	n/a	n/a	n/a	f	2	0.07000000000000003	2	f	1	0.4441417647758499
18	14	102	n/a	n/a	n/a	j	2	0.08000000000000003	1	j	1	0.4620964215137064
18	15	82	n/a	n/a	n/a	j	2	0.07000000000000003	2	j	1	0.4740794022800401
18	16	102	n/a	n/a	n/a	j	2	0.08000000000000003	2	j	1	0.4520860381890088
18	17	102	n/a	n/a	n/a	f	2	0.09000000000000002	1	f	1	0.4290597618091851
18	18	82	n/a	n/a	n/a	j	2	0.08000000000000003	1	j	1	0.4241902771173045
18	19	82	n/a	n/a	n/a	j	2	0.07000000000000003	1	j	1	0.4907973010558635
18	20	82	n/a	n/a	n/a	j	2	0.06000000000000003	2	j	1	0.470142190111801
18	21	102	n/a	n/a	n/a	f	2	0.07000000000000003	2	f	1	0.4100627844454721
18	22	102	n/a	n/a	n/a	j	2	0.08000000000000003	1	j	1	0.4371944812592119
18	23	82	n/a	n/a	n/a	j	2	0.07000000000000003	1	j	1	0.5220406904118136
18	24	82	n/a	n/a	n/a	j	2	0.06000000000000003	2	j	1	0.4759550661547109
18	25	102	n/a	n/a	n/a	f	2	0.07000000000000003	2	f	1	0.4409449537051842
18	26	102	n/a	n/a	n/a	j	2	0.08000000000000003	1	j	1	0.4345681525301188
18	27	82	n/a	n/a	n/a	j	2	0.07000000000000003	1	j	1	0.4709761035628617
18	28	82	n/a	n/a	n/a	j	2	0.06000000000000003	2	j	1	0.4666608506813645
18	29	102	n/a	n/a	n/a	f	2	0.07000000000000003	2	f	1	0.4128231094218791
18	30	102	n/a	n/a	n/a	j	2	0.08000000000000003	1	j	1	0.4249437928665429
18	31	82	n/a	n/a	n/a	j	2	0.07000000000000003	1	j	1	0.4879021245287731
18	32	82	n/a	n/a	n/a	j	2	0.06000000000000003	2	j	1	0.421379204490222
18	33	102	n/a	n/a	n/a	f	2	0.07000000000000003	1	f	1	0.4408984826877713
18	34	82	n/a	n/a	n/a	j	2	0.06000000000000003	1	j	1	0.4506157845025882
18	35	82	n/a	n/a	n/a	j	2	0.05000000000000003	2	j	1	0.5176806770032272
18	36	102	n/a	n/a	n/a	j	2	0.06000000000000003	2	j	1	0.4727705144323409
18	37	102	n/a	n/a	n/a	f	2	0.07000000000000003	2	f	1	0.4345316599356011
18	38	102	n/a	n/a	n/a	j	2	0.08000000000000003	1	j	1	0.4475603824248537
18	39	82	n/a	n/a	n/a	j	2	0.07000000000000003	1	j	1	0.4694177544442937
18	40	82	n/a	n/a	n/a	j	2	0.06000000000000003	2	j	1	0.4644943861057982
18	41	102	n/a	n/a	n/a	f	2	0.07000000000000003	2	f	1	0.4003620182629675
18	42	102	n/a	n/a	n/a	j	2	0.08000000000000003	1	j	1	0.4511745778145269
18	43	82	n/a	n/a	n/a	j	2	0.07000000000000003	1	j	1	0.4863634471548721
18	44	82	n/a	n/a	n/a	j	2	0.06000000000000003	2	j	1	0.5233621225925162
18	45	102	n/a	n/a	n/a	f	2	0.07000000000000003	2	f	1	0.3846054719761014
18	46	102	n/a	n/a	n/a	j	2	0.08000000000000003	1	j	1	0.4338488486828282
18	47	82	n/a	n/a	n/a	j	2	0.07000000000000003	1	j	1	0.4942461394239217
18	48	82	n/a	n/a	n/a	j	2	0.06000000000000003	2	j	1	0.4901946026366204
18	49	102	n/a	n/a	n/a	f	2	0.07000000000000003	2	f	1	0.3901144328992814
18	50	102	n/a	n/a	n/a	j	2	0.08000000000000003	1	j	1	0.4654776912648231
18	51	82	n/a	n/a	n/a	j	2	0.07000000000000003	2	j	1	0.4293286097235978
18	52	102	n/a	n/a	n/a	j	2	0.08000000000000003	1	j	1	0.4882160180713981
18	53	82	n/a	n/a	n/a	f	2	0.07000000000000003	2	f	1	0.3493085502414033
18	54	102	n/a	n/a	n/a	j	2	0.08000000000000003	1	j	1	0.4193025460699573
18	55	82	n/a	n/a	n/a	j	2	0.07000000000000003	1	j	1	0.4761939788004383
18	56	82	n/a	n/a	n/a	j	2	0.06000000000000003	2	j	1	0.5048783227102831
18	57	102	n/a	n/a	n/a	f	2	0.07000000000000003	2	f	1	0.3861584042897448
18	58	102	n/a	n/a	n/a	j	2	0.08000000000000003	1	j	1	0.4510710870381445
18	59	82	n/a	n/a	n/a	j	2	0.07000000000000003	1	j	1	0.4992339399177581
18	60	82	n/a	n/a	n/a	j	2	0.06000000000000003	2	j	1	0.4351229545427486
18	61	102	n/a	n/a	n/a	f	2	0.07000000000000003	1	f	1	0.4260938806692138
18	62	82	n/a	n/a	n/a	j	2	0.06000000000000003	1	j	1	0.4331942622084171
18	63	82	n/a	n/a	n/a	j	2	0.05000000000000003	1	j	1	0.4538904274813831
18	64	82	n/a	n/a	n/a	j	2	0.04000000000000003	2	j	1	0.4441232333192602
18	65	102	n/a	n/a	n/a	f	2	0.05000000000000003	2	f	1	0.4706479550804943
18	66	102	n/a	n/a	n/a	j	2	0.06000000000000003	2	j	1	0.4416397390887141
18	67	102	n/a	n/a	n/a	j	2	0.07000000000000003	1	j	1	0.4408044001320377
18	68	82	n/a	n/a	n/a	j	2	0.06000000000000003	1	j	1	0.4188928593648598
18	69	82	n/a	n/a	n/a	f	2	0.05000000000000003	1	f	1	0.435832564951852
18	70	82	n/a	n/a	n/a	j	2	0.04000000000000003	2	j	1	0.4468251131474972
18	71	102	n/a	n/a	n/a	j	2	0.05000000000000003	2	j	1	0.4879662716994062
19	0	111	f	1	0.7947127317311242	f	11	0.16	0	f	1	0.8647931123850867
19	1	71	n/a	n/a	n/a	f	11	0.17	1	f	1	0.8050652334932238
19	2	91	n/a	n/a	n/a	j	11	0.16	1	f	0	0.8900770850013942
19	3	131	n/a	n/a	n/a	f	11	0.17	1	f	1	0.7650644693057984
19	4	91	n/a	n/a	n/a	f	11	0.16	0	f	1	1.062762468936853
19	5	71	n/a	n/a	n/a	f	11	0.17	1	f	1	0.9859802746213973
19	6	91	n/a	n/a	n/a	f	11	0.16	1	f	1	0.8518607532605529
19	7	91	n/a	n/a	n/a	f	11	0.15	1	f	1	0.8707525292411447
19	8	91	n/a	n/a	n/a	j	11	0.14	1	j	1	0.7139420075109228
19	9	91	n/a	n/a	n/a	f	11	0.13	0	f	1	0.7246477463049814
19	10	71	n/a	n/a	n/a	f	11	0.14	0	f	1	0.8079410233767703
19	11	71	n/a	n/a	n/a	f	11	0.15	0	f	1	0.9547100859927014
19	12	71	n/a	n/a	n/a	f	11	0.16	1	f	1	0.7335921459598467
19	13	91	n/a	n/a	n/a	f	11	0.15	0	f	1	0.7875065787229687
19	14	71	n/a	n/a	n/a	j	11	0.16	0	j	1	0.8466003983048722
19	15	71	n/a	n/a	n/a	f	11	0.17	1	f	1	0.713427119422704
19	16	91	n/a	n/a	n/a	f	11	0.16	0	f	1	0.6763303700136021
19	17	71	n/a	n/a	n/a	f	11	0.17	0	f	1	0.9292929725488648
19	18	71	n/a	n/a	n/a	f	11	0.18	1	f	1	0.6603226518491283
19	19	91	n/a	n/a	n/a	f	11	0.17	0	f	1	0.7833512660581619
19	20	71	n/a	n/a	n/a	j	11	0.18	0	j	1	0.6338187422370538
19	21	71	n/a	n/a	n/a	f	11	0.1900000000000001	0	f	1	0.6931266710162163
19	22	71	n/a	n/a	n/a	f	11	0.2000000000000001	0	f	1	0.6960543489549309
19	23	71	n/a	n/a	n/a	f	11	0.2100000000000001	0	f	1	0.8419997616438195
19	24	71	n/a	n/a	n/a	f	11	0.2200000000000001	1	f	1	0.6760352929122746
19	25	91	n/a	n/a	n/a	f	11	0.2100000000000001	0	f	1	0.6548459070036188
19	26	71	n/a	n/a	n/a	j	11	0.2200000000000001	0	j	1	0.5780220882734284
19	27	71	n/a	n/a	n/a	f	11	0.2300000000000001	0	f	1	0.635845793527551
19	28	71	n/a	n/a	n/a	f	11	0.2400000000000001	0	f	1	0.7859128772979602
19	29	71	n/a	n/a	n/a	f	11	0.2500000000000001	1	f	1	0.628925594384782
19	30	91	n/a	n/a	n/a	f	11	0.2400000000000001	0	f	1	0.7586851022206247
19	31	71	n/a	n/a	n/a	f	11	0.2500000000000001	1	f	1	0.8666716273874044
19	32	91	n/a	n/a	n/a	j	11	0.2400000000000001	1	j	1	0.6537881910335273
19	33	91	n/a	n/a	n/a	f	11	0.2300000000000001	0	f	1	0.5128915901295841
19	34	71	n/a	n/a	n/a	f	11	0.2400000000000001	0	f	1	0.5304029185790569
19	35	71	n/a	n/a	n/a	f	11	0.2500000000000001	0	f	1	0.8377375371055678
19	36	71	n/a	n/a	n/a	f	11	0.2600000000000001	1	f	1	1.064684603945352
19	37	91	n/a	n/a	n/a	f	11	0.2500000000000001	1	f	1	0.5875669054221362
19	38	91	n/a	n/a	n/a	j	11	0.2400000000000001	0	j	1	0.4934421612415463
19	39	71	n/a	n/a	n/a	f	11	0.2500000000000001	0	f	1	0.6246000778628513
19	40	71	n/a	n/a	n/a	f	11	0.2600000000000001	0	f	1	0.7382928521838039
19	41	71	n/a	n/a	n/a	f	11	0.2700000000000001	1	f	1	0.6005830836948007
19	42	91	n/a	n/a	n/a	f	11	0.2600000000000001	0	f	1	0.6994564308552071
19	43	71	n/a	n/a	n/a	f	11	0.2700000000000001	0	f	1	0.7090976114850491
19	44	71	n/a	n/a	n/a	j	11	0.2800000000000001	1	j	1	0.5764583223499358
19	45	91	n/a	n/a	n/a	f	11	0.2700000000000001	0	f	1	0.586184177082032
19	46	71	n/a	n/a	n/a	f	11	0.2800000000000001	0	f	1	0.5878323323559016
19	47	71	n/a	n/a	n/a	f	11	0.2900000000000001	0	f	1	0.7031989207025617
19	48	71	n/a	n/a	n/a	f	11	0.3000000000000002	0	j	0	0.6581313837086782
19	49	131	n/a	n/a	n/a	f	11	0.2900000000000001	0	f	1	0.5261486766394228
19	50	71	n/a	n/a	n/a	j	11	0.3000000000000002	0	j	1	0.6658507144311443
19	51	71	n/a	n/a	n/a	f	11	0.3100000000000002	0	f	1	0.798590928548947
19	52	71	n/a	n/a	n/a	f	11	0.3200000000000002	1	f	1	0.4740987889235839
19	53	91	n/a	n/a	n/a	f	11	0.3100000000000002	0	f	1	0.7727333375951275
19	54	71	n/a	n/a	n/a	f	11	0.3200000000000002	1	f	1	0.5361151548568159
19	55	91	n/a	n/a	n/a	f	11	0.3100000000000002	0	f	1	0.5709148644236848
19	56	71	n/a	n/a	n/a	j	11	0.3200000000000002	0	j	1	0.6137706062290817
19	57	71	n/a	n/a	n/a	f	11	0.3300000000000002	0	f	1	0.5629258304834366
19	58	71	n/a	n/a	n/a	f	11	0.3400000000000002	0	f	1	0.4766127887414768
19	59	71	n/a	n/a	n/a	f	11	0.3500000000000002	0	f	1	0.8879776186076924
19	60	71	n/a	n/a	n/a	f	11	0.3600000000000002	1	f	1	0.5557789779268205
19	61	91	n/a	n/a	n/a	f	11	0.3500000000000002	0	f	1	0.5666170024778694
19	62	71	n/a	n/a	n/a	j	11	0.3600000000000002	0	j	1	0.6024832661496475
19	63	71	n/a	n/a	n/a	f	11	0.3700000000000002	0	f	1	0.8695573958102614
19	64	71	n/a	n/a	n/a	f	11	0.3800000000000002	1	f	1	0.4635786493308842
19	65	91	n/a	n/a	n/a	f	11	0.3700000000000002	0	f	1	0.4824841100489721
19	66	71	n/a	n/a	n/a	f	11	0.3800000000000002	0	f	1	0.5812833316158503
19	67	71	n/a	n/a	n/a	f	11	0.3900000000000002	0	f	1	0.4966375466901809
19	68	71	n/a	n/a	n/a	j	11	0.4000000000000002	0	j	1	0.4434327244525775
19	69	71	n/a	n/a	n/a	f	11	0.4100000000000003	0	f	1	0.9264109103241935
19	70	71	n/a	n/a	n/a	f	11	0.4200000000000003	1	f	1	0.801357525633648
19	71	91	n/a	n/a	n/a	f	11	0.4100000000000003	1	f	1	0.6683248003246263
20	0	83	f	1	0.02227789245080203	f	3	0.02000000000000001	2	f	1	0.4716095927869901
20	1	103	n/a	n/a	n/a	f	3	0.03000000000000001	2	f	1	0.4162996021332219
20	2	103	n/a	n/a	n/a	j	3	0.04000000000000001	1	j	1	0.4035043753683567
20	3	83	n/a	n/a	n/a	f	3	0.03000000000000001	1	f	1	0.4140935089671984
20	4	83	n/a	n/a	n/a	f	3	0.02000000000000001	2	f	1	0.4175223902566358
20	5	103	n/a	n/a	n/a	f	3	0.03000000000000001	1	f	1	0.4113927695434541
20	6	83	n/a	n/a	n/a	f	3	0.02000000000000001	2	f	1	0.4704746151110157
20	7	103	n/a	n/a	n/a	f	3	0.03000000000000001	2	f	1	0.4251459278166294
20	8	103	n/a	n/a	n/a	j	3	0.04000000000000001	1	j	1	0.3980358984554186
20	9	83	n/a	n/a	n/a	f	3	0.03000000000000001	1	f	1	0.3849396074656397
20	10	83	n/a	n/a	n/a	f	3	0.02000000000000001	1	f	1	0.412338726921007
20	11	83	n/a	n/a	n/a	f	3	0.01000000000000001	2	f	1	0.3753163882065564
20	12	103	n/a	n/a	n/a	f	3	0.02000000000000001	1	f	1	0.4343127042520791
20	13	83	n/a	n/a	n/a	f	3	0.01000000000000001	2	f	1	0.3732257599476725
20	14	103	n/a	n/a	n/a	j	3	0.02000000000000001	1	j	1	0.4403664886485785
20	15	83	n/a	n/a	n/a	f	3	0.01000000000000001	2	f	1	0.3711796069983393
20	16	103	n/a	n/a	n/a	f	3	0.02000000000000001	1	f	1	0.4541815131669864
20	17	83	n/a	n/a	n/a	f	3	0.01000000000000001	2	f	1	0.3773648218484595
20	18	103	n/a	n/a	n/a	f	3	0.02000000000000001	1	f	1	0.4429440654348582
20	19	83	n/a	n/a	n/a	f	3	0.01000000000000001	2	f	1	0.3500461004441604
20	20	103	n/a	n/a	n/a	j	3	0.02000000000000001	0	j	1	0.4169111388036981
20	21	63	n/a	n/a	n/a	f	3	0.03000000000000001	2	f	1	0.4279869355959818
20	22	103	n/a	n/a	n/a	f	3	0.04000000000000001	1	f	1	0.4231699090451002
20	23	83	n/a	n/a	n/a	f	3	0.03000000000000001	2	f	1	0.3699380024336278
20	24	103	n/a	n/a	n/a	f	3	0.04000000000000001	1	f	1	0.4129665141226724
20	25	83	n/a	n/a	n/a	f	3	0.03000000000000001	2	f	1	0.4161405172199011
20	26	103	n/a	n/a	n/a	j	3	0.04000000000000001	1	j	1	0.3699864691589028
20	27	83	n/a	n/a	n/a	f	3	0.03000000000000001	1	f	1	0.4368845788994804
20	28	83	n/a	n/a	n/a	f	3	0.02000000000000001	2	f	1	0.3520854109665379
20	29	103	n/a	n/a	n/a	f	3	0.03000000000000001	0	f	1	0.4428545443806797
20	30	63	n/a	n/a	n/a	f	3	0.04000000000000001	2	f	1	0.4699508888879791
20	31	103	n/a	n/a	n/a	f	3	0.05000000000000002	2	f	1	0.3449650725815445
20	32	103	n/a	n/a	n/a	j	3	0.06000000000000002	1	j	1	0.3638454446336254
20	33	83	n/a	n/a	n/a	f	3	0.05000000000000002	1	f	1	0.4307235975284129
20	34	83	n/a	n/a	n/a	f	3	0.04000000000000001	2	f	1	0.3923250876832753
20	35	103	n/a	n/a	n/a	f	3	0.05000000000000002	1	f	1	0.3557477880967781
20	36	83	n/a	n/a	n/a	f	3	0.04000000000000001	1	f	1	0.4227448269957677
20	37	83	n/a	n/a	n/a	f	3	0.03000000000000001	2	f	1	0.3694282461656258
20	38	103	n/a	n/a	n/a	j	3	0.04000000000000001	1	j	1	0.4123532668454573
20	39	83	n/a	n/a	n/a	f	3	0.03000000000000001	1	f	1	0.4318092530593276
20	40	83	n/a	n/a	n/a	f	3	0.02000000000000001	2	f	1	0.3863360206596553
20	41	103	n/a	n/a	n/a	f	3	0.03000000000000001	1	f	1	0.3975617794785649
20	42	83	n/a	n/a	n/a	f	3	0.02000000000000001	1	f	1	0.4328604118200019
20	43	83	n/a	n/a	n/a	f	3	0.01000000000000001	2	f	1	0.4195232124766335
20	44	103	n/a	n/a	n/a	j	3	0.02000000000000001	2	j	1	0.3905985302990302
20	45	103	n/a	n/a	n/a	f	3	0.03000000000000001	1	f	1	0.4254903269466013
20	46	83	n/a	n/a	n/a	f	3	0.02000000000000001	2	f	1	0.3804689758690074
20	47	103	n/a	n/a	n/a	f	3	0.03000000000000001	1	f	1	0.4702408342855051
20	48	83	n/a	n/a	n/a	f	3	0.02000000000000001	2	f	1	0.4343221123563126
20	49	103	n/a	n/a	n/a	f	3	0.03000000000000001	2	f	1	0.3482340135378763
20	50	103	n/a	n/a	n/a	j	3	0.04000000000000001	0	j	1	0.4234664116520435
20	51	63	n/a	n/a	n/a	f	3	0.05000000000000002	1	f	1	0.3943846402689815
20	52	83	n/a	n/a	n/a	f	3	0.04000000000000001	1	f	1	0.4053751926403493
20	53	83	n/a	n/a	n/a	f	3	0.03000000000000001	1	f	1	0.3920111941406503
20	54	83	n/a	n/a	n/a	f	3	0.02000000000000001	1	f	1	0.4444408331764862
20	55	83	n/a	n/a	n/a	f	3	0.01000000000000001	2	f	1	0.3823417888488621
20	56	103	n/a	n/a	n/a	j	3	0.02000000000000001	1	j	1	0.4173319443361834
20	57	83	n/a	n/a	n/a	f	3	0.01000000000000001	2	f	1	0.4201433019479737
20	58	103	n/a	n/a	n/a	f	3	0.02000000000000001	2	f	1	0.4072331804782152
20	59	103	n/a	n/a	n/a	f	3	0.03000000000000001	1	f	1	0.4102007721085101
20	60	83	n/a	n/a	n/a	f	3	0.02000000000000001	2	f	1	0.4211941756075248
20	61	103	n/a	n/a	n/a	f	3	0.03000000000000001	2	f	1	0.38417326239869
20	62	103	n/a	n/a	n/a	j	3	0.04000000000000001	1	j	1	0.4189438920002431
20	63	83	n/a	n/a	n/a	f	3	0.03000000000000001	1	f	1	0.4209698028862476
20	64	83	n/a	n/a	n/a	f	3	0.02000000000000001	2	f	1	0.4002000822219998
20	65	103	n/a	n/a	n/a	f	3	0.03000000000000001	1	f	1	0.3858043116051704
20	66	83	n/a	n/a	n/a	f	3	0.02000000000000001	1	f	1	0.4278503734385595
20	67	83	n/a	n/a	n/a	f	3	0.01000000000000001	2	f	1	0.4309776204172522
20	68	103	n/a	n/a	n/a	j	3	0.02000000000000001	2	j	1	0.4009037056239322
20	69	103	n/a	n/a	n/a	f	3	0.03000000000000001	1	f	1	0.4359106820775196
20	70	83	n/a	n/a	n/a	f	3	0.02000000000000001	2	f	1	0.3828578173415735
20	71	103	n/a	n/a	n/a	f	3	0.03000000000000001	1	f	1	0.3854949796805158
21	0	84	j	1	0.05772962269838899	j	4	0.04000000000000001	1	j	1	0.5451821465976536
21	1	84	n/a	n/a	n/a	j	4	0.03000000000000001	2	j	1	0.3872372175101191
21	2	104	n/a	n/a	n/a	f	4	0.04000000000000001	1	f	1	0.4211719379527494
21	3	84	n/a	n/a	n/a	j	4	0.03000000000000001	2	j	1	0.4083584647160023
21	4	104	n/a	n/a	n/a	j	4	0.04000000000000001	1	j	1	0.3695690848398954
21	5	84	n/a	n/a	n/a	j	4	0.03000000000000001	1	j	1	0.380754359648563
21	6	84	n/a	n/a	n/a	j	4	0.02000000000000001	1	j	1	0.4438794739544392
21	7	84	n/a	n/a	n/a	j	4	0.01000000000000001	2	j	1	0.3655098504386842
21	8	104	n/a	n/a	n/a	f	4	0.02000000000000001	1	f	1	0.4010642161592841
21	9	84	n/a	n/a	n/a	j	4	0.01000000000000001	2	j	1	0.4026961207855493
