blockLoop_thisRepN	trialLoop_thisRepN	trigger	firstKey	readyKey_corr	readyKey_rt	targetKey	blockType	margin	outcome	trialResp_keys	trialResp_corr	trialResp_rt
0	0	44	j	1	3.041385203038772	j	4	0.1	0	j	1	0.4070236329662293
0	1	64	n/a	n/a	n/a	j	4	0.11	1	j	1	0.4013866627437892
0	2	84	n/a	n/a	n/a	f	4	0.1	1	f	1	0.3804940645313764
0	3	84	n/a	n/a	n/a	j	4	0.09000000000000001	1	j	1	0.422481110789704
0	4	84	n/a	n/a	n/a	j	4	0.08000000000000002	1	j	1	0.3935036854700229
0	5	84	n/a	n/a	n/a	j	4	0.07000000000000002	1	j	1	0.3964809705212247
0	6	84	n/a	n/a	n/a	j	4	0.06000000000000002	1	j	1	0.3996484163626519
0	7	84	n/a	n/a	n/a	j	4	0.05000000000000002	1	j	1	0.3795834594893677
0	8	84	n/a	n/a	n/a	f	4	0.04000000000000001	1	f	1	0.3431110761384843
0	9	84	n/a	n/a	n/a	j	4	0.03000000000000001	0	j	1	0.3944305411341702
0	10	64	n/a	n/a	n/a	j	4	0.04000000000000001	1	j	1	0.3731339581554494
0	11	84	n/a	n/a	n/a	j	4	0.03000000000000001	1	j	1	0.4174465539845187
0	12	84	n/a	n/a	n/a	j	4	0.02000000000000001	2	j	1	0.3962614445727013
0	13	104	n/a	n/a	n/a	j	4	0.03000000000000001	1	j	1	0.3614018642028896
0	14	84	n/a	n/a	n/a	f	4	0.02000000000000001	0	f	1	0.3482764932177815
0	15	64	n/a	n/a	n/a	j	4	0.03000000000000001	0	j	1	0.3750327150692101
0	16	64	n/a	n/a	n/a	j	4	0.04000000000000001	1	j	1	0.3713512363874543
0	17	84	n/a	n/a	n/a	j	4	0.03000000000000001	1	j	1	0.4221997184367865
0	18	84	n/a	n/a	n/a	j	4	0.02000000000000001	2	j	1	0.385171677845392
0	19	104	n/a	n/a	n/a	j	4	0.03000000000000001	1	j	1	0.3321521696861964
0	20	84	n/a	n/a	n/a	f	4	0.02000000000000001	0	f	1	0.3119651905972205
0	21	64	n/a	n/a	n/a	j	4	0.03000000000000001	0	j	1	0.3880873815915038
0	22	64	n/a	n/a	n/a	j	4	0.04000000000000001	1	j	1	0.3598563444993488
0	23	84	n/a	n/a	n/a	j	4	0.03000000000000001	1	j	1	0.3792233799122187
0	24	84	n/a	n/a	n/a	j	4	0.02000000000000001	1	j	1	0.3736057963978965
0	25	84	n/a	n/a	n/a	j	4	0.01000000000000001	1	j	1	0.3199245743053325
0	26	84	n/a	n/a	n/a	f	4	1.040834085586084e-17	0	f	1	0.317153130468796
0	27	64	n/a	n/a	n/a	j	4	0.01000000000000001	0	j	1	0.3688956818396036
0	28	64	n/a	n/a	n/a	j	4	0.02000000000000001	1	j	1	0.4040625985371662
0	29	84	n/a	n/a	n/a	j	4	0.01000000000000001	2	j	1	0.3827457735560529
0	30	104	n/a	n/a	n/a	j	4	0.02000000000000001	1	j	1	0.36197320186875
0	31	84	n/a	n/a	n/a	j	4	0.01000000000000001	0	j	1	0.358021734779868
0	32	64	n/a	n/a	n/a	f	4	0.02000000000000001	0	f	1	0.3379490802426517
0	33	64	n/a	n/a	n/a	j	4	0.03000000000000001	0	j	1	0.3578854576317099
0	34	64	n/a	n/a	n/a	j	4	0.04000000000000001	1	j	1	0.3529025036796156
0	35	84	n/a	n/a	n/a	j	4	0.03000000000000001	0	j	1	0.3888451737648211
0	36	64	n/a	n/a	n/a	j	4	0.04000000000000001	1	j	1	0.3674596400123846
0	37	84	n/a	n/a	n/a	j	4	0.03000000000000001	1	j	1	0.3388340264082217
0	38	84	n/a	n/a	n/a	f	4	0.02000000000000001	0	f	1	0.3247398902594796
0	39	64	n/a	n/a	n/a	j	4	0.03000000000000001	0	j	1	0.3601987479605668
0	40	64	n/a	n/a	n/a	j	4	0.04000000000000001	1	j	1	0.3623463959820583
0	41	84	n/a	n/a	n/a	j	4	0.03000000000000001	1	j	1	0.3577645758105064
0	42	84	n/a	n/a	n/a	j	4	0.02000000000000001	0	j	1	0.378199590712029
0	43	64	n/a	n/a	n/a	j	4	0.03000000000000001	1	j	1	0.3576174649142558
0	44	84	n/a	n/a	n/a	f	4	0.02000000000000001	0	f	1	0.3047399358756593
0	45	64	n/a	n/a	n/a	j	4	0.03000000000000001	0	j	1	0.3716788147194166
0	46	64	n/a	n/a	n/a	j	4	0.04000000000000001	1	j	1	0.3607489883270318
0	47	84	n/a	n/a	n/a	j	4	0.03000000000000001	1	j	1	0.3797274343005483
0	48	84	n/a	n/a	n/a	j	4	0.02000000000000001	1	j	1	0.390178009885858
0	49	84	n/a	n/a	n/a	j	4	0.01000000000000001	1	j	1	0.3455937150574755
0	50	84	n/a	n/a	n/a	f	4	1.040834085586084e-17	0	f	1	0.3106765447646467
0	51	64	n/a	n/a	n/a	j	4	0.01000000000000001	0	j	1	0.3290668322524652
0	52	64	n/a	n/a	n/a	j	4	0.02000000000000001	0	j	1	0.3885150295445783
0	53	64	n/a	n/a	n/a	j	4	0.03000000000000001	1	j	1	0.3835249481262508
0	54	84	n/a	n/a	n/a	j	4	0.02000000000000001	1	j	1	0.364482640058668
0	55	84	n/a	n/a	n/a	j	4	0.01000000000000001	0	j	1	0.3457736122973074
0	56	64	n/a	n/a	n/a	f	4	0.02000000000000001	0	f	1	0.3164164355939647
0	57	64	n/a	n/a	n/a	j	4	0.03000000000000001	0	j	1	0.3935008344842572
0	58	64	n/a	n/a	n/a	j	4	0.04000000000000001	1	j	1	0.3560371631774615
0	59	84	n/a	n/a	n/a	j	4	0.03000000000000001	1	j	1	0.3763082463638057
0	60	84	n/a	n/a	n/a	j	4	0.02000000000000001	1	j	1	0.3633242843025073
0	61	84	n/a	n/a	n/a	j	4	0.01000000000000001	0	j	1	0.34442310005943
0	62	64	n/a	n/a	n/a	f	4	0.02000000000000001	0	f	1	0.3389366619167049
0	63	64	n/a	n/a	n/a	j	4	0.03000000000000001	0	j	1	0.3092042954103817
0	64	64	n/a	n/a	n/a	j	4	0.04000000000000001	0	j	1	0.3921762662230321
0	65	64	n/a	n/a	n/a	j	4	0.05000000000000002	1	j	1	0.3961502561041925
0	66	84	n/a	n/a	n/a	j	4	0.04000000000000001	1	j	1	0.3672603560653442
0	67	84	n/a	n/a	n/a	j	4	0.03000000000000001	1	j	1	0.3712078317739724
0	68	84	n/a	n/a	n/a	f	4	0.02000000000000001	1	f	1	0.3381326837652523
0	69	84	n/a	n/a	n/a	j	4	0.01000000000000001	0	j	1	0.3428470748031032
0	70	64	n/a	n/a	n/a	j	4	0.02000000000000001	0	j	1	0.3792478983950787
0	71	64	n/a	n/a	n/a	j	4	0.03000000000000001	1	j	1	0.3522165563626913
1	0	92	j	1	1.697588749779243	j	12	0.1	0	j	1	0.8586004850103564
1	1	72	n/a	n/a	n/a	j	12	0.11	0	j	1	0.9568885247226717
1	2	72	n/a	n/a	n/a	f	12	0.12	1	f	1	0.8879967202256012
1	3	92	n/a	n/a	n/a	j	12	0.11	1	j	1	0.9228146761934113
1	4	92	n/a	n/a	n/a	j	12	0.1	1	j	1	0.9185330648842864
1	5	92	n/a	n/a	n/a	j	12	0.09000000000000001	1	j	1	0.9294822779838796
1	6	92	n/a	n/a	n/a	j	12	0.08000000000000002	1	j	1	0.9172090668207602
1	7	92	n/a	n/a	n/a	j	12	0.07000000000000002	1	j	1	0.912785761489431
1	8	92	n/a	n/a	n/a	f	12	0.06000000000000002	0	f	1	0.875612320593973
1	9	72	n/a	n/a	n/a	j	12	0.07000000000000002	0	j	1	0.9115661095274845
1	10	72	n/a	n/a	n/a	j	12	0.08000000000000002	1	j	1	0.9324150876482236
1	11	92	n/a	n/a	n/a	j	12	0.07000000000000002	1	j	1	0.9290991054176629
1	12	92	n/a	n/a	n/a	j	12	0.06000000000000002	1	j	1	0.9003389252575289
1	13	92	n/a	n/a	n/a	j	12	0.05000000000000002	0	j	1	0.8884269340669562
1	14	72	n/a	n/a	n/a	f	12	0.06000000000000002	0	f	1	0.9151306977673812
1	15	72	n/a	n/a	n/a	j	12	0.07000000000000002	1	j	1	0.8483700055703594
1	16	92	n/a	n/a	n/a	j	12	0.06000000000000002	0	j	1	0.9711388949235698
1	17	72	n/a	n/a	n/a	j	12	0.07000000000000002	1	j	1	0.8551992582879393
1	18	92	n/a	n/a	n/a	j	12	0.06000000000000002	0	j	1	0.8915464833371516
1	19	72	n/a	n/a	n/a	j	12	0.07000000000000002	0	j	1	0.9441625769268285
1	20	72	n/a	n/a	n/a	f	12	0.08000000000000002	1	f	1	0.8758786027201495
1	21	92	n/a	n/a	n/a	j	12	0.07000000000000002	0	j	1	0.8399969437423351
1	22	72	n/a	n/a	n/a	j	12	0.08000000000000002	0	j	1	0.954939875548007
1	23	72	n/a	n/a	n/a	j	12	0.09000000000000001	1	j	1	0.949847443719591
1	24	92	n/a	n/a	n/a	j	12	0.08000000000000002	1	f	0	0.9206983890207994
1	25	132	n/a	n/a	n/a	j	12	0.07000000000000002	1	j	1	0.8915020079502938
1	26	92	n/a	n/a	n/a	f	12	0.06000000000000002	0	f	1	0.8302448598142291
1	27	72	n/a	n/a	n/a	j	12	0.07000000000000002	0	j	1	0.8425673930405537
1	28	72	n/a	n/a	n/a	j	12	0.08000000000000002	0	j	1	0.8862975323572755
1	29	72	n/a	n/a	n/a	j	12	0.09000000000000001	0	j	1	0.9053851711069001
1	30	72	n/a	n/a	n/a	j	12	0.1	1	j	1	0.9894484994974846
1	31	92	n/a	n/a	n/a	j	12	0.09000000000000001	1	j	1	0.9313838858824965
1	32	92	n/a	n/a	n/a	f	12	0.08000000000000002	1	f	1	0.904180629372604
1	33	92	n/a	n/a	n/a	j	12	0.07000000000000002	0	j	1	0.8763153738300389
1	34	72	n/a	n/a	n/a	j	12	0.08000000000000002	0	j	1	0.9992564627591491
1	35	72	n/a	n/a	n/a	j	12	0.09000000000000001	1	j	1	0.9301496938896889
1	36	92	n/a	n/a	n/a	j	12	0.08000000000000002	1	j	1	0.9730721487712799
1	37	92	n/a	n/a	n/a	j	12	0.07000000000000002	1	j	1	0.9681741542126474
1	38	92	n/a	n/a	n/a	f	12	0.06000000000000002	1	f	1	0.9636402306105083
1	39	92	n/a	n/a	n/a	j	12	0.05000000000000002	1	j	1	0.9280716099347046
1	40	92	n/a	n/a	n/a	j	12	0.04000000000000001	0	j	1	0.9228443264510133
1	41	72	n/a	n/a	n/a	j	12	0.05000000000000002	0	j	1	0.9977366019320471
1	42	72	n/a	n/a	n/a	j	12	0.06000000000000002	1	j	1	0.9930108069484049
1	43	92	n/a	n/a	n/a	j	12	0.05000000000000002	1	j	1	0.9805286184864599
1	44	92	n/a	n/a	n/a	f	12	0.04000000000000001	1	f	1	0.9438264456357501
1	45	92	n/a	n/a	n/a	j	12	0.03000000000000001	0	j	1	0.8592878578201635
1	46	72	n/a	n/a	n/a	j	12	0.04000000000000001	0	j	1	0.9836131006240976
1	47	72	n/a	n/a	n/a	j	12	0.05000000000000002	1	j	1	0.946534312476615
1	48	92	n/a	n/a	n/a	j	12	0.04000000000000001	0	j	1	1.037417200228447
1	49	72	n/a	n/a	n/a	j	12	0.05000000000000002	2	j	1	0.9934105152360644
1	50	112	n/a	n/a	n/a	f	12	0.06000000000000002	1	f	1	0.8683628324897654
1	51	92	n/a	n/a	n/a	j	12	0.05000000000000002	0	j	1	0.8743755627137944
1	52	72	n/a	n/a	n/a	j	12	0.06000000000000002	0	j	1	0.9092990051767629
1	53	72	n/a	n/a	n/a	j	12	0.07000000000000002	0	j	1	0.8971891555320326
1	54	72	n/a	n/a	n/a	j	12	0.08000000000000002	0	j	1	0.9248844922885837
1	55	72	n/a	n/a	n/a	j	12	0.09000000000000001	1	j	1	0.9449930692526323
1	56	92	n/a	n/a	n/a	f	12	0.08000000000000002	1	f	1	0.9080197675993986
1	57	92	n/a	n/a	n/a	j	12	0.07000000000000002	0	j	1	0.8869638078685966
1	58	72	n/a	n/a	n/a	j	12	0.08000000000000002	0	j	1	0.9068930577914216
1	59	72	n/a	n/a	n/a	j	12	0.09000000000000001	1	j	1	0.8804972006164462
1	60	92	n/a	n/a	n/a	j	12	0.08000000000000002	0	j	1	0.9399667803072589
1	61	72	n/a	n/a	n/a	j	12	0.09000000000000001	1	j	1	0.9181744108009298
1	62	92	n/a	n/a	n/a	f	12	0.08000000000000002	1	f	1	0.961658509994777
1	63	92	n/a	n/a	n/a	j	12	0.07000000000000002	1	j	1	0.8765636947418898
1	64	92	n/a	n/a	n/a	j	12	0.06000000000000002	0	j	1	0.8816321782851446
1	65	72	n/a	n/a	n/a	j	12	0.07000000000000002	0	j	1	0.9330482917175686
1	66	72	n/a	n/a	n/a	j	12	0.08000000000000002	1	j	1	0.9527822490754261
1	67	92	n/a	n/a	n/a	j	12	0.07000000000000002	1	j	1	0.9160122227494867
1	68	92	n/a	n/a	n/a	f	12	0.06000000000000002	0	f	1	0.928559983897685
1	69	72	n/a	n/a	n/a	j	12	0.07000000000000002	1	j	1	0.8823061514594883
1	70	92	n/a	n/a	n/a	j	12	0.06000000000000002	0	j	1	0.9681824220724593
1	71	72	n/a	n/a	n/a	j	12	0.07000000000000002	1	j	1	0.8672013406476253
2	0	86	j	1	4.845626786498542	j	6	0.1	2	j	1	0.6409439273702446
2	1	106	n/a	n/a	n/a	f	6	0.11	1	f	1	0.6357579831901603
2	2	86	n/a	n/a	n/a	j	6	0.1	1	j	1	0.6008946965384894
2	3	86	n/a	n/a	n/a	j	6	0.09000000000000001	1	j	1	0.6515196612572254
2	4	86	n/a	n/a	n/a	j	6	0.08000000000000002	1	j	1	0.6543712178108763
2	5	86	n/a	n/a	n/a	f	6	0.07000000000000002	2	f	1	0.6246328642318986
2	6	106	n/a	n/a	n/a	j	6	0.08000000000000002	1	j	1	0.5885120074990482
2	7	86	n/a	n/a	n/a	j	6	0.07000000000000002	1	j	1	0.6394936306114687
2	8	86	n/a	n/a	n/a	j	6	0.06000000000000002	1	j	1	0.6670033681548375
2	9	86	n/a	n/a	n/a	f	6	0.05000000000000002	2	f	1	0.6224954797617102
2	10	106	n/a	n/a	n/a	j	6	0.06000000000000002	1	j	1	0.626295274376389
2	11	86	n/a	n/a	n/a	j	6	0.05000000000000002	1	j	1	0.601436669044233
2	12	86	n/a	n/a	n/a	j	6	0.04000000000000001	1	j	1	0.6603788162583442
2	13	86	n/a	n/a	n/a	f	6	0.03000000000000001	2	f	1	0.5289931057450303
2	14	106	n/a	n/a	n/a	j	6	0.04000000000000001	0	j	1	0.6530258373486504
2	15	66	n/a	n/a	n/a	j	6	0.05000000000000002	2	j	1	0.6244649411364662
2	16	106	n/a	n/a	n/a	j	6	0.06000000000000002	1	j	1	0.620303641450846
2	17	86	n/a	n/a	n/a	f	6	0.05000000000000002	1	f	1	0.6311556359160022
2	18	86	n/a	n/a	n/a	j	6	0.04000000000000001	2	j	1	0.6181391726095171
2	19	106	n/a	n/a	n/a	j	6	0.05000000000000002	1	j	1	0.6531752290347868
2	20	86	n/a	n/a	n/a	j	6	0.04000000000000001	2	j	1	0.6430955667728995
2	21	106	n/a	n/a	n/a	f	6	0.05000000000000002	2	f	1	0.6132021195371635
2	22	106	n/a	n/a	n/a	j	6	0.06000000000000002	1	j	1	0.6321859823838167
2	23	86	n/a	n/a	n/a	j	6	0.05000000000000002	1	j	1	0.6046953464492617
2	24	86	n/a	n/a	n/a	j	6	0.04000000000000001	1	j	1	0.614990543278509
2	25	86	n/a	n/a	n/a	f	6	0.03000000000000001	1	f	1	0.6588820484221287
2	26	86	n/a	n/a	n/a	j	6	0.02000000000000001	2	j	1	0.5997252219349321
2	27	106	n/a	n/a	n/a	j	6	0.03000000000000001	1	j	1	0.6348288467361272
2	28	86	n/a	n/a	n/a	j	6	0.02000000000000001	2	j	1	0.6636788329660703
2	29	106	n/a	n/a	n/a	f	6	0.03000000000000001	2	f	1	0.6348068941406382
2	30	106	n/a	n/a	n/a	j	6	0.04000000000000001	2	j	1	0.6306247822558362
2	31	106	n/a	n/a	n/a	j	6	0.05000000000000002	1	j	1	0.5930938276715096
2	32	86	n/a	n/a	n/a	j	6	0.04000000000000001	1	j	1	0.6742317589614686
2	33	86	n/a	n/a	n/a	f	6	0.03000000000000001	2	f	1	0.6537725106754806
2	34	106	n/a	n/a	n/a	j	6	0.04000000000000001	2	j	1	0.6655527862976669
2	35	106	n/a	n/a	n/a	j	6	0.05000000000000002	2	j	1	0.6292950822198691
2	36	106	n/a	n/a	n/a	j	6	0.06000000000000002	1	j	1	0.5352501654997468
2	37	86	n/a	n/a	n/a	f	6	0.05000000000000002	1	f	1	0.5940318021830535
2	38	86	n/a	n/a	n/a	j	6	0.04000000000000001	1	j	1	0.589413489384242
2	39	86	n/a	n/a	n/a	j	6	0.03000000000000001	1	j	1	0.6323989510647152
2	40	86	n/a	n/a	n/a	j	6	0.02000000000000001	2	j	1	0.6430345556655084
2	41	106	n/a	n/a	n/a	f	6	0.03000000000000001	2	f	1	0.5592814145911689
2	42	106	n/a	n/a	n/a	j	6	0.04000000000000001	1	j	1	0.593880414807245
2	43	86	n/a	n/a	n/a	j	6	0.03000000000000001	1	j	1	0.5892700847707601
2	44	86	n/a	n/a	n/a	j	6	0.02000000000000001	1	j	1	0.5764617434688262
2	45	86	n/a	n/a	n/a	f	6	0.01000000000000001	1	f	1	0.5392372699188854
2	46	86	n/a	n/a	n/a	j	6	1.040834085586084e-17	0	j	1	0.5827969202509848
2	47	66	n/a	n/a	n/a	j	6	0.01000000000000001	1	j	1	0.6101390197964065
2	48	86	n/a	n/a	n/a	j	6	1.040834085586084e-17	2	j	1	0.5649728386524657
2	49	106	n/a	n/a	n/a	f	6	0.01000000000000001	0	f	1	0.552224938262043
2	50	66	n/a	n/a	n/a	j	6	0.02000000000000001	0	j	1	0.6750277543524135
2	51	66	n/a	n/a	n/a	j	6	0.03000000000000001	2	j	1	0.622015943855331
2	52	106	n/a	n/a	n/a	j	6	0.04000000000000001	1	j	1	0.6486036724127189
2	53	86	n/a	n/a	n/a	f	6	0.03000000000000001	2	f	1	0.5958889346948126
2	54	106	n/a	n/a	n/a	j	6	0.04000000000000001	1	j	1	0.6629293086525649
2	55	86	n/a	n/a	n/a	j	6	0.03000000000000001	2	j	1	0.6023504101713115
2	56	106	n/a	n/a	n/a	j	6	0.04000000000000001	1	j	1	0.62954340313172
2	57	86	n/a	n/a	n/a	f	6	0.03000000000000001	2	f	1	0.6109164837753269
2	58	106	n/a	n/a	n/a	j	6	0.04000000000000001	1	j	1	0.6213910076467073
2	59	86	n/a	n/a	n/a	j	6	0.03000000000000001	2	j	1	0.6088389700189509
2	60	106	n/a	n/a	n/a	j	6	0.04000000000000001	1	j	1	0.6511860958535181
2	61	86	n/a	n/a	n/a	f	6	0.03000000000000001	2	f	1	0.6385850212600417
2	62	106	n/a	n/a	n/a	j	6	0.04000000000000001	2	j	1	0.5935052250024455
2	63	106	n/a	n/a	n/a	j	6	0.05000000000000002	1	j	1	0.6364886909923371
2	64	86	n/a	n/a	n/a	j	6	0.04000000000000001	2	j	1	0.5991886663032346
2	65	106	n/a	n/a	n/a	f	6	0.05000000000000002	1	f	1	0.5244115706709636
2	66	86	n/a	n/a	n/a	j	6	0.04000000000000001	0	j	1	0.5867597912847486
2	67	66	n/a	n/a	n/a	j	6	0.05000000000000002	1	j	1	0.6384809602577661
2	68	86	n/a	n/a	n/a	j	6	0.04000000000000001	2	j	1	0.5940973748683973
2	69	106	n/a	n/a	n/a	f	6	0.05000000000000002	1	f	1	0.5573430289678072
2	70	86	n/a	n/a	n/a	j	6	0.04000000000000001	1	j	1	0.592480865604557
2	71	86	n/a	n/a	n/a	j	6	0.03000000000000001	1	j	1	0.5883016047064302
3	0	89	f	1	1.663275418396552	f	9	0.1	0	f	1	0.9505296847555655
3	1	69	n/a	n/a	n/a	j	9	0.11	1	j	1	0.9774541148008211
3	2	89	n/a	n/a	n/a	f	9	0.1	1	f	1	0.9414307618008024
3	3	89	n/a	n/a	n/a	f	9	0.09000000000000001	1	f	1	0.9450894325909758
3	4	89	n/a	n/a	n/a	f	9	0.08000000000000002	1	f	1	0.9423142824716706
3	5	89	n/a	n/a	n/a	j	9	0.07000000000000002	1	j	1	0.9292162809560978
3	6	89	n/a	n/a	n/a	f	9	0.06000000000000002	1	f	1	0.8921756960253333
3	7	89	n/a	n/a	n/a	f	9	0.05000000000000002	0	f	1	0.9203360286555835
3	8	69	n/a	n/a	n/a	f	9	0.06000000000000002	0	f	1	0.9706496656654053
3	9	69	n/a	n/a	n/a	j	9	0.07000000000000002	1	j	1	0.980995324952346
3	10	89	n/a	n/a	n/a	f	9	0.06000000000000002	1	f	1	0.89698787589532
3	11	89	n/a	n/a	n/a	f	9	0.05000000000000002	0	f	1	0.9399867372121662
3	12	69	n/a	n/a	n/a	f	9	0.06000000000000002	1	f	1	0.96089444565132
3	13	89	n/a	n/a	n/a	j	9	0.05000000000000002	1	j	1	0.9238347591117417
3	14	89	n/a	n/a	n/a	f	9	0.04000000000000001	0	f	1	0.9184230168111753
3	15	69	n/a	n/a	n/a	f	9	0.05000000000000002	0	f	1	0.9608120521461387
3	16	69	n/a	n/a	n/a	f	9	0.06000000000000002	1	f	1	0.9776591007193929
3	17	89	n/a	n/a	n/a	j	9	0.05000000000000002	1	j	1	0.9336144976077776
3	18	89	n/a	n/a	n/a	f	9	0.04000000000000001	0	f	1	0.9306161152571804
3	19	69	n/a	n/a	n/a	f	9	0.05000000000000002	0	f	1	0.9254906119867883
3	20	69	n/a	n/a	n/a	f	9	0.06000000000000002	0	f	1	0.9810355238605553
3	21	69	n/a	n/a	n/a	j	9	0.07000000000000002	1	j	1	0.9445218012069745
3	22	89	n/a	n/a	n/a	f	9	0.06000000000000002	1	f	1	0.9641953176542302
3	23	89	n/a	n/a	n/a	f	9	0.05000000000000002	1	f	1	0.9509918296434989
3	24	89	n/a	n/a	n/a	f	9	0.04000000000000001	1	f	1	0.995985241013841
3	25	89	n/a	n/a	n/a	j	9	0.03000000000000001	1	j	1	0.8891234300335782
3	26	89	n/a	n/a	n/a	f	9	0.02000000000000001	0	f	1	0.8920243086504343
3	27	69	n/a	n/a	n/a	f	9	0.03000000000000001	0	f	1	0.9110027546230413
3	28	69	n/a	n/a	n/a	f	9	0.04000000000000001	0	f	1	0.9866325802731808
3	29	69	n/a	n/a	n/a	j	9	0.05000000000000002	1	j	1	0.8860033105656839
3	30	89	n/a	n/a	n/a	f	9	0.04000000000000001	0	f	1	0.8657171171507798
3	31	69	n/a	n/a	n/a	f	9	0.05000000000000002	0	f	1	0.9747989912066259
3	32	69	n/a	n/a	n/a	f	9	0.06000000000000002	1	f	1	0.9867129780886899
3	33	89	n/a	n/a	n/a	j	9	0.05000000000000002	1	j	1	1.014724204132108
3	34	89	n/a	n/a	n/a	f	9	0.04000000000000001	1	f	1	0.9467048014603279
3	35	89	n/a	n/a	n/a	f	9	0.03000000000000001	0	f	1	0.9337989564246527
3	36	69	n/a	n/a	n/a	f	9	0.04000000000000001	0	f	1	0.9611165374890334
3	37	69	n/a	n/a	n/a	j	9	0.05000000000000002	1	j	1	0.9165302469691596
3	38	89	n/a	n/a	n/a	f	9	0.04000000000000001	0	f	1	0.9435028586840417
3	39	69	n/a	n/a	n/a	f	9	0.05000000000000002	1	f	1	0.9861664440049935
3	40	89	n/a	n/a	n/a	f	9	0.04000000000000001	1	f	1	0.9733734980291047
3	41	89	n/a	n/a	n/a	j	9	0.03000000000000001	1	j	1	0.9845008977763428
3	42	89	n/a	n/a	n/a	f	9	0.02000000000000001	1	f	1	1.012201081207422
3	43	89	n/a	n/a	n/a	f	9	0.01000000000000001	2	f	1	0.9918213754417593
3	44	109	n/a	n/a	n/a	f	9	0.02000000000000001	1	f	1	1.042687248506809
3	45	89	n/a	n/a	n/a	j	9	0.01000000000000001	2	j	1	1.021605059702779
3	46	109	n/a	n/a	n/a	f	9	0.02000000000000001	2	f	1	0.9457032499540219
3	47	109	n/a	n/a	n/a	f	9	0.03000000000000001	0	f	1	1.005925490041591
3	48	69	n/a	n/a	n/a	f	9	0.04000000000000001	1	f	1	1.002938796735179
3	49	89	n/a	n/a	n/a	j	9	0.03000000000000001	1	j	1	1.029850682441065
3	50	89	n/a	n/a	n/a	f	9	0.02000000000000001	2	f	1	0.9055556600915224
3	51	109	n/a	n/a	n/a	f	9	0.03000000000000001	0	f	1	0.9897432914858655
3	52	69	n/a	n/a	n/a	f	9	0.04000000000000001	1	f	1	1.032686273470063
3	53	89	n/a	n/a	n/a	j	9	0.03000000000000001	2	j	1	1.019558051498279
3	54	109	n/a	n/a	n/a	f	9	0.04000000000000001	1	f	1	0.8705395605711601
3	55	89	n/a	n/a	n/a	f	9	0.03000000000000001	0	f	1	0.8899795812349112
3	56	69	n/a	n/a	n/a	f	9	0.04000000000000001	0	f	1	0.9814876902964897
3	57	69	n/a	n/a	n/a	j	9	0.05000000000000002	1	j	1	0.9943633148759545
3	58	89	n/a	n/a	n/a	f	9	0.04000000000000001	1	f	1	0.983296070941833
3	59	89	n/a	n/a	n/a	f	9	0.03000000000000001	1	f	1	1.003954603173952
3	60	89	n/a	n/a	n/a	f	9	0.02000000000000001	2	f	1	0.9923462420292708
3	61	109	n/a	n/a	n/a	j	9	0.03000000000000001	1	j	1	0.9571436880014517
3	62	89	n/a	n/a	n/a	f	9	0.02000000000000001	0	f	1	0.8487782668171349
3	63	69	n/a	n/a	n/a	f	9	0.03000000000000001	0	f	1	0.9602649478647436
3	64	69	n/a	n/a	n/a	f	9	0.04000000000000001	1	f	1	0.9950127695674382
3	65	89	n/a	n/a	n/a	j	9	0.03000000000000001	1	j	1	0.981912487262889
3	66	89	n/a	n/a	n/a	f	9	0.02000000000000001	1	f	1	0.9770099311253944
3	67	89	n/a	n/a	n/a	f	9	0.01000000000000001	1	f	1	1.011694460932631
3	68	89	n/a	n/a	n/a	f	9	1.040834085586084e-17	2	f	1	1.022768547234591
3	69	109	n/a	n/a	n/a	j	9	0.01000000000000001	2	j	1	0.9937620418540973
3	70	109	n/a	n/a	n/a	f	9	0.02000000000000001	1	f	1	0.8945422997994683
3	71	89	n/a	n/a	n/a	f	9	0.01000000000000001	0	f	1	0.9302300917042885
4	0	63	f	1	3.130344245198103	f	3	0.1	2	f	1	0.424467392983388
4	1	103	n/a	n/a	n/a	f	3	0.11	1	f	1	0.3954634534911747
4	2	83	n/a	n/a	n/a	j	3	0.1	1	j	1	0.4326234947502599
4	3	83	n/a	n/a	n/a	f	3	0.09000000000000001	1	f	1	0.405470415599666
4	4	83	n/a	n/a	n/a	f	3	0.08000000000000002	1	f	1	0.3774323902835022
4	5	83	n/a	n/a	n/a	f	3	0.07000000000000002	1	f	1	0.4283695380090649
4	6	83	n/a	n/a	n/a	f	3	0.06000000000000002	1	f	1	0.4253902572672814
4	7	83	n/a	n/a	n/a	f	3	0.05000000000000002	1	f	1	0.4122874090753612
4	8	83	n/a	n/a	n/a	j	3	0.04000000000000001	1	j	1	0.4084534026233086
4	9	83	n/a	n/a	n/a	f	3	0.03000000000000001	1	f	1	0.4269759758790315
4	10	83	n/a	n/a	n/a	f	3	0.02000000000000001	2	f	1	0.3912055053688164
4	11	103	n/a	n/a	n/a	f	3	0.03000000000000001	1	f	1	0.3941252004960916
4	12	83	n/a	n/a	n/a	f	3	0.02000000000000001	1	f	1	0.4302762776842428
4	13	83	n/a	n/a	n/a	f	3	0.01000000000000001	2	f	1	0.4170451351046722
4	14	103	n/a	n/a	n/a	j	3	0.02000000000000001	2	j	1	0.3887431084531272
4	15	103	n/a	n/a	n/a	f	3	0.03000000000000001	1	f	1	0.4090478332782368
4	16	83	n/a	n/a	n/a	f	3	0.02000000000000001	2	f	1	0.3798126787924048
4	17	103	n/a	n/a	n/a	f	3	0.03000000000000001	1	f	1	0.4070544236183196
4	18	83	n/a	n/a	n/a	f	3	0.02000000000000001	2	f	1	0.4262281621568036
4	19	103	n/a	n/a	n/a	f	3	0.03000000000000001	2	f	1	0.3647432202114942
4	20	103	n/a	n/a	n/a	j	3	0.04000000000000001	1	j	1	0.38703878880915
4	21	83	n/a	n/a	n/a	f	3	0.03000000000000001	1	j	0	0.426220464493781
4	22	123	n/a	n/a	n/a	f	3	0.02000000000000001	2	f	1	0.1588811931269447
4	23	103	n/a	n/a	n/a	f	3	0.03000000000000001	0	f	1	0.3866479185799108
4	24	63	n/a	n/a	n/a	f	3	0.04000000000000001	1	f	1	0.5430045632883775
4	25	83	n/a	n/a	n/a	f	3	0.03000000000000001	2	f	1	0.4899052275122813
4	26	103	n/a	n/a	n/a	j	3	0.04000000000000001	2	j	1	0.4139586572764529
4	27	103	n/a	n/a	n/a	f	3	0.05000000000000002	1	f	1	0.4093742712166204
4	28	83	n/a	n/a	n/a	f	3	0.04000000000000001	1	f	1	0.3958149801082982
4	29	83	n/a	n/a	n/a	f	3	0.03000000000000001	1	f	1	0.4227992808673662
4	30	83	n/a	n/a	n/a	f	3	0.02000000000000001	2	f	1	0.4338987409473702
4	31	103	n/a	n/a	n/a	f	3	0.03000000000000001	2	f	1	0.3966354939821031
4	32	103	n/a	n/a	n/a	j	3	0.04000000000000001	1	j	1	0.3608975247161652
4	33	83	n/a	n/a	n/a	f	3	0.03000000000000001	1	f	1	0.3958962332199008
4	34	83	n/a	n/a	n/a	f	3	0.02000000000000001	1	f	1	0.3907336671263693
4	35	83	n/a	n/a	n/a	f	3	0.01000000000000001	1	f	1	0.3859015303523847
4	36	83	n/a	n/a	n/a	f	3	1.040834085586084e-17	0	f	1	0.3896602707636703
4	37	63	n/a	n/a	n/a	f	3	0.01000000000000001	1	f	1	0.3928037683199364
4	38	83	n/a	n/a	n/a	j	3	1.040834085586084e-17	2	j	1	0.3795281503544174
4	39	103	n/a	n/a	n/a	f	3	0.01000000000000001	1	f	1	0.3758158810196619
4	40	83	n/a	n/a	n/a	f	3	1.040834085586084e-17	0	f	1	0.3972715490372138
4	41	63	n/a	n/a	n/a	f	3	0.01000000000000001	2	f	1	0.4087057149163229
4	42	103	n/a	n/a	n/a	f	3	0.02000000000000001	2	f	1	0.403604159931092
4	43	103	n/a	n/a	n/a	f	3	0.03000000000000001	1	f	1	0.415648436889569
4	44	83	n/a	n/a	n/a	j	3	0.02000000000000001	2	j	1	0.4184027748087829
4	45	103	n/a	n/a	n/a	f	3	0.03000000000000001	2	f	1	0.3809031810733359
4	46	103	n/a	n/a	n/a	f	3	0.04000000000000001	1	f	1	0.4090877470880514
4	47	83	n/a	n/a	n/a	f	3	0.03000000000000001	1	f	1	0.4053643589077183
4	48	83	n/a	n/a	n/a	f	3	0.02000000000000001	2	f	1	0.434288755880516
4	49	103	n/a	n/a	n/a	f	3	0.03000000000000001	2	f	1	0.3892813746770116
4	50	103	n/a	n/a	n/a	j	3	0.04000000000000001	1	j	1	0.3681980454775839
4	51	83	n/a	n/a	n/a	f	3	0.03000000000000001	1	f	1	0.3804111008284963
4	52	83	n/a	n/a	n/a	f	3	0.02000000000000001	1	f	1	0.3924148937803693
4	53	83	n/a	n/a	n/a	f	3	0.01000000000000001	1	f	1	0.3952901135207867
4	54	83	n/a	n/a	n/a	f	3	1.040834085586084e-17	2	f	1	0.4302372191705217
4	55	103	n/a	n/a	n/a	f	3	0.01000000000000001	2	f	1	0.3768120156528312
4	56	103	n/a	n/a	n/a	j	3	0.02000000000000001	1	j	1	0.379990580341655
4	57	83	n/a	n/a	n/a	f	3	0.01000000000000001	0	f	1	0.3831126954992214
4	58	63	n/a	n/a	n/a	f	3	0.02000000000000001	1	f	1	0.3791395609141546
4	59	83	n/a	n/a	n/a	f	3	0.01000000000000001	1	f	1	0.361038363442276
4	60	83	n/a	n/a	n/a	f	3	1.040834085586084e-17	0	f	1	0.4139004971548275
4	61	63	n/a	n/a	n/a	f	3	0.01000000000000001	2	f	1	0.392802342826144
4	62	103	n/a	n/a	n/a	j	3	0.02000000000000001	1	j	1	0.3887465296365917
4	63	83	n/a	n/a	n/a	f	3	0.01000000000000001	1	f	1	0.3617368550994797
4	64	83	n/a	n/a	n/a	f	3	1.040834085586084e-17	0	f	1	0.4066390349071298
4	65	63	n/a	n/a	n/a	f	3	0.01000000000000001	2	f	1	0.3860175654972409
4	66	103	n/a	n/a	n/a	f	3	0.02000000000000001	1	f	1	0.414090657945053
4	67	83	n/a	n/a	n/a	f	3	0.01000000000000001	2	f	1	0.3948978177977551
4	68	103	n/a	n/a	n/a	j	3	0.02000000000000001	1	j	1	0.3985259830342329
4	69	83	n/a	n/a	n/a	f	3	0.01000000000000001	2	f	1	0.4090441269963776
4	70	103	n/a	n/a	n/a	f	3	0.02000000000000001	2	f	1	0.379914459005704
4	71	103	n/a	n/a	n/a	f	3	0.03000000000000001	1	f	1	0.3999412126613606
5	0	91	f	1	1.450530254952355	f	11	0.1	0	f	1	0.9670642652235983
5	1	71	n/a	n/a	n/a	f	11	0.11	1	f	1	1.034949671538016
5	2	91	n/a	n/a	n/a	j	11	0.1	1	j	1	1.046948902911936
5	3	91	n/a	n/a	n/a	f	11	0.09000000000000001	1	f	1	0.9629252032327713
5	4	91	n/a	n/a	n/a	f	11	0.08000000000000002	1	f	1	1.030835698226838
5	5	91	n/a	n/a	n/a	f	11	0.07000000000000002	1	f	1	0.9697724171628579
5	6	91	n/a	n/a	n/a	f	11	0.06000000000000002	1	f	1	1.023680862867877
5	7	91	n/a	n/a	n/a	f	11	0.05000000000000002	1	f	1	1.003720252095263
5	8	91	n/a	n/a	n/a	j	11	0.04000000000000001	1	j	1	1.014556281036676
5	9	91	n/a	n/a	n/a	f	11	0.03000000000000001	2	f	1	0.9376666045154707
5	10	111	n/a	n/a	n/a	f	11	0.04000000000000001	0	f	1	0.9805197804280397
5	11	71	n/a	n/a	n/a	f	11	0.05000000000000002	1	f	1	0.953458217939442
5	12	91	n/a	n/a	n/a	f	11	0.04000000000000001	1	f	1	1.036417359314328
5	13	91	n/a	n/a	n/a	f	11	0.03000000000000001	2	f	1	1.01029662232304
5	14	111	n/a	n/a	n/a	j	11	0.04000000000000001	1	j	1	0.9902921063603571
5	15	91	n/a	n/a	n/a	f	11	0.03000000000000001	1	f	1	0.945391637144894
5	16	91	n/a	n/a	n/a	f	11	0.02000000000000001	0	f	1	0.9386222551411265
5	17	71	n/a	n/a	n/a	f	11	0.03000000000000001	0	f	1	0.9585985463390898
5	18	71	n/a	n/a	n/a	f	11	0.04000000000000001	1	f	1	1.00980197618992
5	19	91	n/a	n/a	n/a	f	11	0.03000000000000001	1	f	1	1.020601797603376
5	20	91	n/a	n/a	n/a	j	11	0.02000000000000001	2	j	1	0.9841145891241467
5	21	111	n/a	n/a	n/a	f	11	0.03000000000000001	1	f	1	0.9718288336216574
5	22	91	n/a	n/a	n/a	f	11	0.02000000000000001	1	f	1	0.9909039280319121
5	23	91	n/a	n/a	n/a	f	11	0.01000000000000001	1	f	1	1.717019647287088
5	24	91	n/a	n/a	n/a	f	11	1.040834085586084e-17	2	f	1	0.9438019271528901
5	25	111	n/a	n/a	n/a	f	11	0.01000000000000001	0	f	1	0.9465899067099599
5	26	71	n/a	n/a	n/a	j	11	0.02000000000000001	0	j	1	0.9435196795038792
5	27	71	n/a	n/a	n/a	f	11	0.03000000000000001	0	f	1	0.8825074310962009
5	28	71	n/a	n/a	n/a	f	11	0.04000000000000001	0	f	1	0.9034236924944707
5	29	71	n/a	n/a	n/a	f	11	0.05000000000000002	0	f	1	0.8983572046417976
5	30	71	n/a	n/a	n/a	f	11	0.06000000000000002	0	f	1	0.9984966748943407
5	31	71	n/a	n/a	n/a	f	11	0.07000000000000002	1	f	1	1.007967081371135
5	32	91	n/a	n/a	n/a	j	11	0.06000000000000002	1	j	1	0.9802172907766362
5	33	91	n/a	n/a	n/a	f	11	0.05000000000000002	1	f	1	0.949808670305174
5	34	91	n/a	n/a	n/a	f	11	0.04000000000000001	1	f	1	0.9771430721884826
5	35	91	n/a	n/a	n/a	f	11	0.03000000000000001	1	f	1	0.9326970501988399
5	36	91	n/a	n/a	n/a	f	11	0.02000000000000001	0	f	1	0.962048239829528
5	37	71	n/a	n/a	n/a	f	11	0.03000000000000001	1	f	1	0.9739568098375457
5	38	91	n/a	n/a	n/a	j	11	0.02000000000000001	1	j	1	0.9927051812119316
5	39	91	n/a	n/a	n/a	f	11	0.01000000000000001	1	f	1	0.9957551664147104
5	40	91	n/a	n/a	n/a	f	11	1.040834085586084e-17	2	f	1	0.9999119045214684
5	41	111	n/a	n/a	n/a	f	11	0.01000000000000001	2	f	1	0.96271080905899
5	42	111	n/a	n/a	n/a	f	11	0.02000000000000001	0	f	1	0.974733133421978
5	43	71	n/a	n/a	n/a	f	11	0.03000000000000001	1	f	1	1.034650603069167
5	44	91	n/a	n/a	n/a	j	11	0.02000000000000001	2	j	1	0.9975113740101733
5	45	111	n/a	n/a	n/a	f	11	0.03000000000000001	1	f	1	0.9446235814211832
5	46	91	n/a	n/a	n/a	f	11	0.02000000000000001	0	f	1	0.9391251691340585
5	47	71	n/a	n/a	n/a	f	11	0.03000000000000001	0	f	1	0.8567550415418737
5	48	71	n/a	n/a	n/a	f	11	0.04000000000000001	0	f	1	0.9959612927286798
5	49	71	n/a	n/a	n/a	f	11	0.05000000000000002	1	f	1	0.9921289968688143
5	50	91	n/a	n/a	n/a	j	11	0.04000000000000001	1	j	1	0.9951718546071788
5	51	91	n/a	n/a	n/a	f	11	0.03000000000000001	1	f	1	1.031146455738963
5	52	91	n/a	n/a	n/a	f	11	0.02000000000000001	2	f	1	0.9961041271444628
5	53	111	n/a	n/a	n/a	f	11	0.03000000000000001	1	f	1	0.9361969210485768
5	54	91	n/a	n/a	n/a	f	11	0.02000000000000001	0	f	1	0.9545008236500507
5	55	71	n/a	n/a	n/a	f	11	0.03000000000000001	0	f	1	1.022954431544349
5	56	71	n/a	n/a	n/a	j	11	0.04000000000000001	1	j	1	1.018569329430647
5	57	91	n/a	n/a	n/a	f	11	0.03000000000000001	1	f	1	0.9987869053056784
5	58	91	n/a	n/a	n/a	f	11	0.02000000000000001	1	f	1	1.0097221485712
5	59	91	n/a	n/a	n/a	f	11	0.01000000000000001	2	f	1	0.9257745702279863
5	60	111	n/a	n/a	n/a	f	11	0.02000000000000001	0	f	1	1.035262994938421
5	61	71	n/a	n/a	n/a	f	11	0.03000000000000001	2	f	1	1.015429253058755
5	62	111	n/a	n/a	n/a	j	11	0.04000000000000001	1	j	1	0.9781603041201379
5	63	91	n/a	n/a	n/a	f	11	0.03000000000000001	1	f	1	0.9094717749503616
5	64	91	n/a	n/a	n/a	f	11	0.02000000000000001	0	f	1	1.008264154149401
5	65	71	n/a	n/a	n/a	f	11	0.03000000000000001	1	f	1	0.9653801875838326
5	66	91	n/a	n/a	n/a	f	11	0.02000000000000001	1	f	1	1.040360558542488
5	67	91	n/a	n/a	n/a	f	11	0.01000000000000001	2	f	1	1.035265275727397
5	68	111	n/a	n/a	n/a	j	11	0.02000000000000001	2	j	1	0.9661995610622398
5	69	111	n/a	n/a	n/a	f	11	0.03000000000000001	1	f	1	1.018114882205737
5	70	91	n/a	n/a	n/a	f	11	0.02000000000000001	2	f	1	0.959059550832535
5	71	111	n/a	n/a	n/a	f	11	0.03000000000000001	1	f	1	0.9060075414290623
6	0	87	f	1	0.9534659156024645	f	7	0.1	2	f	1	0.6663442201097496
6	1	107	n/a	n/a	n/a	f	7	0.11	1	f	1	0.5818238786068832
6	2	87	n/a	n/a	n/a	j	7	0.1	1	j	1	0.5526286379299563
6	3	87	n/a	n/a	n/a	f	7	0.09000000000000001	1	f	1	0.5803513441542236
6	4	87	n/a	n/a	n/a	f	7	0.08000000000000002	1	f	1	0.5599074911951902
6	5	87	n/a	n/a	n/a	f	7	0.07000000000000002	1	f	1	0.6037519550645811
6	6	87	n/a	n/a	n/a	f	7	0.06000000000000002	1	f	1	0.6226118000040515
6	7	87	n/a	n/a	n/a	f	7	0.05000000000000002	1	f	1	0.6016065878311565
6	8	87	n/a	n/a	n/a	j	7	0.04000000000000001	1	j	1	0.5896521169424886
6	9	87	n/a	n/a	n/a	f	7	0.03000000000000001	1	f	1	0.5767770625607227
6	10	87	n/a	n/a	n/a	f	7	0.02000000000000001	1	f	1	0.5796693882175532
6	11	87	n/a	n/a	n/a	f	7	0.01000000000000001	1	f	1	0.5901507544567721
6	12	87	n/a	n/a	n/a	f	7	1.040834085586084e-17	2	f	1	0.6340599357163228
6	13	107	n/a	n/a	n/a	f	7	0.01000000000000001	2	f	1	0.5983841179531737
6	14	107	n/a	n/a	n/a	j	7	0.02000000000000001	1	j	1	0.5694343472014225
6	15	87	n/a	n/a	n/a	f	7	0.01000000000000001	0	f	1	0.5653243652704987
6	16	67	n/a	n/a	n/a	f	7	0.02000000000000001	1	f	1	0.5856601658479121
6	17	87	n/a	n/a	n/a	f	7	0.01000000000000001	1	f	1	0.5802729420292962
6	18	87	n/a	n/a	n/a	f	7	1.040834085586084e-17	0	f	1	0.6400789381095819
6	19	67	n/a	n/a	n/a	f	7	0.01000000000000001	2	f	1	0.5952483180599302
6	20	107	n/a	n/a	n/a	j	7	0.02000000000000001	1	j	1	0.5741199432768553
6	21	87	n/a	n/a	n/a	f	7	0.01000000000000001	1	f	1	0.5451858529495439
6	22	87	n/a	n/a	n/a	f	7	1.040834085586084e-17	0	f	1	0.6280925361743357
6	23	67	n/a	n/a	n/a	f	7	0.01000000000000001	2	f	1	0.5826694811603375
6	24	107	n/a	n/a	n/a	f	7	0.02000000000000001	1	f	1	0.6260241455738651
6	25	87	n/a	n/a	n/a	f	7	0.01000000000000001	2	f	1	0.598829156922875
6	26	107	n/a	n/a	n/a	j	7	0.02000000000000001	1	j	1	0.5867461065508905
6	27	87	n/a	n/a	n/a	f	7	0.01000000000000001	1	f	1	0.5658626314952926
6	28	87	n/a	n/a	n/a	f	7	1.040834085586084e-17	0	f	1	0.585902499688018
6	29	67	n/a	n/a	n/a	f	7	0.01000000000000001	1	f	1	0.6070439890090711
6	30	87	n/a	n/a	n/a	f	7	1.040834085586084e-17	2	f	1	0.6197739281851682
6	31	107	n/a	n/a	n/a	f	7	0.01000000000000001	2	f	1	0.5904694947312237
6	32	107	n/a	n/a	n/a	j	7	0.02000000000000001	1	j	1	0.6019355916569111
6	33	87	n/a	n/a	n/a	f	7	0.01000000000000001	2	f	1	0.6045579289066154
6	34	107	n/a	n/a	n/a	f	7	0.02000000000000001	1	f	1	0.5855928825694718
6	35	87	n/a	n/a	n/a	f	7	0.01000000000000001	1	f	1	0.5961586380035442
6	36	87	n/a	n/a	n/a	f	7	1.040834085586084e-17	2	f	1	0.6077855305602498
6	37	107	n/a	n/a	n/a	f	7	0.01000000000000001	2	f	1	0.5946339305010042
6	38	107	n/a	n/a	n/a	j	7	0.02000000000000001	1	j	1	0.5733624362019327
6	39	87	n/a	n/a	n/a	f	7	0.01000000000000001	0	f	1	0.5861813261535644
6	40	67	n/a	n/a	n/a	f	7	0.02000000000000001	1	f	1	0.5971644659903177
6	41	87	n/a	n/a	n/a	f	7	0.01000000000000001	2	f	1	0.6011381707730834
6	42	107	n/a	n/a	n/a	f	7	0.02000000000000001	1	f	1	0.6235044438317345
6	43	87	n/a	n/a	n/a	f	7	0.01000000000000001	2	f	1	0.6103762218608608
6	44	107	n/a	n/a	n/a	j	7	0.02000000000000001	2	j	1	0.6165779724806271
6	45	107	n/a	n/a	n/a	f	7	0.03000000000000001	2	f	1	0.5792665438466429
6	46	107	n/a	n/a	n/a	f	7	0.04000000000000001	1	f	1	0.6553140389987675
6	47	87	n/a	n/a	n/a	f	7	0.03000000000000001	2	f	1	0.6302282100532466
6	48	107	n/a	n/a	n/a	f	7	0.04000000000000001	2	f	1	0.642167570714264
6	49	107	n/a	n/a	n/a	f	7	0.05000000000000002	2	f	1	0.6382235161900098
6	50	107	n/a	n/a	n/a	j	7	0.06000000000000002	1	j	1	0.5931850592351111
6	51	87	n/a	n/a	n/a	f	7	0.05000000000000002	1	f	1	0.613104045606633
6	52	87	n/a	n/a	n/a	f	7	0.04000000000000001	1	f	1	0.6261638439054877
6	53	87	n/a	n/a	n/a	f	7	0.03000000000000001	2	f	1	0.597046720254184
6	54	107	n/a	n/a	n/a	f	7	0.04000000000000001	1	f	1	0.6241208270821517
6	55	87	n/a	n/a	n/a	f	7	0.03000000000000001	2	f	1	0.5954538741762008
6	56	107	n/a	n/a	n/a	j	7	0.04000000000000001	1	j	1	0.5200378725030532
6	57	87	n/a	n/a	n/a	f	7	0.03000000000000001	0	f	1	0.587832047253869
6	58	67	n/a	n/a	n/a	f	7	0.04000000000000001	1	f	1	0.6080503871926339
6	59	87	n/a	n/a	n/a	f	7	0.03000000000000001	1	f	1	0.5867800332889601
6	60	87	n/a	n/a	n/a	f	7	0.02000000000000001	1	f	1	0.6227500728427913
6	61	87	n/a	n/a	n/a	f	7	0.01000000000000001	2	f	1	0.6097199248024481
6	62	107	n/a	n/a	n/a	j	7	0.02000000000000001	2	j	1	0.60504402207971
6	63	107	n/a	n/a	n/a	f	7	0.03000000000000001	1	f	1	0.5917934927947499
6	64	87	n/a	n/a	n/a	f	7	0.02000000000000001	1	f	1	0.5946952267076995
6	65	87	n/a	n/a	n/a	f	7	0.01000000000000001	1	f	1	0.5655225088221414
6	66	87	n/a	n/a	n/a	f	7	1.040834085586084e-17	0	f	1	0.6167233727856001
6	67	67	n/a	n/a	n/a	f	7	0.01000000000000001	2	f	1	0.6194808467880648
6	68	107	n/a	n/a	n/a	j	7	0.02000000000000001	2	j	1	0.5766921031672609
6	69	107	n/a	n/a	n/a	f	7	0.03000000000000001	1	f	1	0.5954401894423427
6	70	87	n/a	n/a	n/a	f	7	0.02000000000000001	1	f	1	0.5834329753070051
6	71	87	n/a	n/a	n/a	f	7	0.01000000000000001	1	f	1	0.5941504032143712
7	0	90	j	1	1.592848642844729	j	10	0.1	0	j	1	1.018896622664215
7	1	70	n/a	n/a	n/a	f	10	0.11	1	f	1	0.9886182922700755
7	2	90	n/a	n/a	n/a	j	10	0.1	1	j	1	0.9837496628706504
7	3	90	n/a	n/a	n/a	j	10	0.09000000000000001	1	j	1	0.9627031113959674
7	4	90	n/a	n/a	n/a	j	10	0.08000000000000002	1	j	1	0.9971558560118865
7	5	90	n/a	n/a	n/a	f	10	0.07000000000000002	1	f	1	0.9766039506685047
7	6	90	n/a	n/a	n/a	j	10	0.06000000000000002	1	j	1	0.932385437389712
7	7	90	n/a	n/a	n/a	j	10	0.05000000000000002	1	j	1	0.9675842851347625
7	8	90	n/a	n/a	n/a	j	10	0.04000000000000001	1	j	1	0.9937241237357739
7	9	90	n/a	n/a	n/a	f	10	0.03000000000000001	1	f	1	0.9967570030203206
7	10	90	n/a	n/a	n/a	j	10	0.02000000000000001	1	j	1	0.9683580428318237
7	11	90	n/a	n/a	n/a	j	10	0.01000000000000001	0	j	1	0.9311267269140444
7	12	70	n/a	n/a	n/a	j	10	0.02000000000000001	0	j	1	0.8882541642933575
7	13	70	n/a	n/a	n/a	f	10	0.03000000000000001	0	f	1	0.9632656110034077
7	14	70	n/a	n/a	n/a	j	10	0.04000000000000001	1	j	1	0.9429677285452271
7	15	90	n/a	n/a	n/a	j	10	0.03000000000000001	0	j	1	0.9299153428110003
7	16	70	n/a	n/a	n/a	j	10	0.04000000000000001	0	j	1	1.00585507067899
7	17	70	n/a	n/a	n/a	f	10	0.05000000000000002	1	f	1	0.9547730928470628
7	18	90	n/a	n/a	n/a	j	10	0.04000000000000001	1	j	1	0.9736876767256035
7	19	90	n/a	n/a	n/a	j	10	0.03000000000000001	1	j	1	0.9614250142121818
7	20	90	n/a	n/a	n/a	j	10	0.02000000000000001	0	j	1	1.026558363397271
7	21	70	n/a	n/a	n/a	f	10	0.03000000000000001	2	f	1	0.9335030240417836
7	22	110	n/a	n/a	n/a	j	10	0.04000000000000001	0	j	1	0.8967096196274724
7	23	70	n/a	n/a	n/a	j	10	0.05000000000000002	0	j	1	0.9004401352731293
7	24	70	n/a	n/a	n/a	j	10	0.06000000000000002	0	j	1	0.9063194393365848
7	25	70	n/a	n/a	n/a	f	10	0.07000000000000002	0	f	1	0.9650879614819132
7	26	70	n/a	n/a	n/a	j	10	0.08000000000000002	1	j	1	0.9695357852961024
7	27	90	n/a	n/a	n/a	j	10	0.07000000000000002	1	j	1	0.9482303642589613
7	28	90	n/a	n/a	n/a	j	10	0.06000000000000002	1	j	1	1.024306084175805
7	29	90	n/a	n/a	n/a	f	10	0.05000000000000002	1	f	1	1.059147418232897
7	30	90	n/a	n/a	n/a	j	10	0.04000000000000001	2	j	1	1.029717256278673
7	31	110	n/a	n/a	n/a	j	10	0.05000000000000002	1	j	1	1.017084820835407
7	32	90	n/a	n/a	n/a	j	10	0.04000000000000001	1	j	1	0.9716090225729204
7	33	90	n/a	n/a	n/a	f	10	0.03000000000000001	1	f	1	0.8880899474788748
7	34	90	n/a	n/a	n/a	j	10	0.02000000000000001	0	j	1	0.9308581639988915
7	35	70	n/a	n/a	n/a	j	10	0.03000000000000001	0	j	1	0.934743488204731
7	36	70	n/a	n/a	n/a	j	10	0.04000000000000001	0	j	1	0.99578909315278
7	37	70	n/a	n/a	n/a	f	10	0.05000000000000002	1	f	1	1.046594240209743
7	38	90	n/a	n/a	n/a	j	10	0.04000000000000001	2	j	1	0.9938107937196037
7	39	110	n/a	n/a	n/a	j	10	0.05000000000000002	1	j	1	1.019570310740164
7	40	90	n/a	n/a	n/a	j	10	0.04000000000000001	1	j	1	1.09407371168254
7	41	90	n/a	n/a	n/a	f	10	0.03000000000000001	2	f	1	1.026414673684485
7	42	110	n/a	n/a	n/a	j	10	0.04000000000000001	1	j	1	0.9970247106393799
7	43	90	n/a	n/a	n/a	j	10	0.03000000000000001	1	j	1	1.072115129671147
7	44	90	n/a	n/a	n/a	j	10	0.02000000000000001	2	j	1	1.029204363833742
7	45	110	n/a	n/a	n/a	f	10	0.03000000000000001	2	f	1	1.000403699667913
7	46	110	n/a	n/a	n/a	j	10	0.04000000000000001	1	j	1	0.8907781425141366
7	47	90	n/a	n/a	n/a	j	10	0.03000000000000001	0	j	1	0.9340703703255713
7	48	70	n/a	n/a	n/a	j	10	0.04000000000000001	0	j	1	1.026118741301616
7	49	70	n/a	n/a	n/a	f	10	0.05000000000000002	1	f	1	1.006017576901286
7	50	90	n/a	n/a	n/a	j	10	0.04000000000000001	1	j	1	1.033937856480406
7	51	90	n/a	n/a	n/a	j	10	0.03000000000000001	2	j	1	1.006880570471367
7	52	110	n/a	n/a	n/a	j	10	0.04000000000000001	1	j	1	1.068789168988587
7	53	90	n/a	n/a	n/a	f	10	0.03000000000000001	2	f	1	1.023874159743173
7	54	110	n/a	n/a	n/a	j	10	0.04000000000000001	1	j	1	0.9638446463322907
7	55	90	n/a	n/a	n/a	j	10	0.03000000000000001	1	j	1	1.014573957151697
7	56	90	n/a	n/a	n/a	j	10	0.02000000000000001	2	j	1	1.04793277830322
7	57	110	n/a	n/a	n/a	f	10	0.03000000000000001	2	f	1	1.018452153891303
7	58	110	n/a	n/a	n/a	j	10	0.04000000000000001	1	j	1	0.8689986024464815
7	59	90	n/a	n/a	n/a	j	10	0.03000000000000001	0	j	1	0.9292137150687267
7	60	70	n/a	n/a	n/a	j	10	0.04000000000000001	0	j	1	0.9673530701420532
7	61	70	n/a	n/a	n/a	f	10	0.05000000000000002	1	f	1	0.9789249386603842
7	62	90	n/a	n/a	n/a	j	10	0.04000000000000001	1	j	1	0.9989890402384844
7	63	90	n/a	n/a	n/a	j	10	0.03000000000000001	1	j	1	1.058318066301581
7	64	90	n/a	n/a	n/a	j	10	0.02000000000000001	2	j	1	1.045146794436732
7	65	110	n/a	n/a	n/a	f	10	0.03000000000000001	2	f	1	1.016327313760485
7	66	110	n/a	n/a	n/a	j	10	0.04000000000000001	1	j	1	0.9310545969592567
7	67	90	n/a	n/a	n/a	j	10	0.03000000000000001	0	j	1	0.9020138797413892
7	68	70	n/a	n/a	n/a	j	10	0.04000000000000001	0	j	1	0.9890108730915017
7	69	70	n/a	n/a	n/a	f	10	0.05000000000000002	1	f	1	0.9838976290629944
7	70	90	n/a	n/a	n/a	j	10	0.04000000000000001	1	j	1	1.010685781960092
7	71	90	n/a	n/a	n/a	j	10	0.03000000000000001	1	j	1	0.9745081905984989
8	0	82	j	1	1.541568806560463	j	2	0.1	2	j	1	0.4615339218908048
8	1	102	n/a	n/a	n/a	f	2	0.11	2	j	0	0.3926378409132667
8	2	122	n/a	n/a	n/a	j	2	0.1	1	j	1	0.5958319149676754
8	3	82	n/a	n/a	n/a	j	2	0.09000000000000001	2	j	1	0.4565464063607578
8	4	102	n/a	n/a	n/a	j	2	0.1	2	f	0	0.3957773470883694
8	5	122	n/a	n/a	n/a	f	2	0.09000000000000001	2	j	0	0.4172863285502899
8	6	122	n/a	n/a	n/a	j	2	0.08000000000000002	1	j	1	0.4044768468547772
8	7	82	n/a	n/a	n/a	j	2	0.07000000000000002	1	j	1	0.4324304829742687
8	8	82	n/a	n/a	n/a	j	2	0.06000000000000002	1	f	0	0.3798685581250538
8	9	122	n/a	n/a	n/a	f	2	0.05000000000000002	1	j	0	0.407760042742666
8	10	122	n/a	n/a	n/a	j	2	0.04000000000000001	1	j	1	0.4026869976205489
8	11	82	n/a	n/a	n/a	j	2	0.03000000000000001	1	f	0	0.4702331365579084
8	12	122	n/a	n/a	n/a	j	2	0.02000000000000001	2	j	1	1.857603209982699
8	13	102	n/a	n/a	n/a	f	2	0.03000000000000001	2	j	0	0.404516190466893
8	14	122	n/a	n/a	n/a	j	2	0.04000000000000001	1	j	1	0.4486511698460163
8	15	82	n/a	n/a	n/a	j	2	0.03000000000000001	2	j	1	1.781062209091942
8	16	102	n/a	n/a	n/a	j	2	0.04000000000000001	2	j	1	0.4013487446254658
8	17	102	n/a	n/a	n/a	f	2	0.05000000000000002	1	f	1	0.5652935746184085
8	18	82	n/a	n/a	n/a	j	2	0.04000000000000001	2	j	1	0.4662736867076092
8	19	102	n/a	n/a	n/a	j	2	0.05000000000000002	2	j	1	0.5104072405929401
8	20	102	n/a	n/a	n/a	j	2	0.06000000000000002	2	j	1	0.4247559128034482
8	21	102	n/a	n/a	n/a	f	2	0.07000000000000002	1	f	1	0.3731644637100544
8	22	82	n/a	n/a	n/a	j	2	0.06000000000000002	1	j	1	0.3920228831566419
8	23	82	n/a	n/a	n/a	j	2	0.05000000000000002	1	j	1	0.427770545776184
8	24	82	n/a	n/a	n/a	j	2	0.04000000000000001	2	j	1	0.4010288639556165
8	25	102	n/a	n/a	n/a	f	2	0.05000000000000002	1	f	1	0.3640501454283367
8	26	82	n/a	n/a	n/a	j	2	0.04000000000000001	1	j	1	0.4230952132502352
8	27	82	n/a	n/a	n/a	j	2	0.03000000000000001	2	j	1	0.435087602258136
8	28	102	n/a	n/a	n/a	j	2	0.04000000000000001	2	j	1	0.3740083556704121
8	29	102	n/a	n/a	n/a	f	2	0.05000000000000002	1	f	1	0.3528309439216173
8	30	82	n/a	n/a	n/a	j	2	0.04000000000000001	1	j	1	0.429973217834231
8	31	82	n/a	n/a	n/a	j	2	0.03000000000000001	2	j	1	0.4019568600151615
8	32	102	n/a	n/a	n/a	j	2	0.04000000000000001	1	j	1	0.3970161006600392
8	33	82	n/a	n/a	n/a	f	2	0.03000000000000001	1	f	1	0.385869884404201
8	34	82	n/a	n/a	n/a	j	2	0.02000000000000001	1	j	1	0.4128025823092685
8	35	82	n/a	n/a	n/a	j	2	0.01000000000000001	2	j	1	0.4418746603760155
8	36	102	n/a	n/a	n/a	j	2	0.02000000000000001	2	j	1	0.3898766606289428
8	37	102	n/a	n/a	n/a	f	2	0.03000000000000001	1	f	1	0.3538350613162038
8	38	82	n/a	n/a	n/a	j	2	0.02000000000000001	0	j	1	0.4058282143869292
8	39	62	n/a	n/a	n/a	j	2	0.03000000000000001	1	j	1	0.4098312843298118
8	40	82	n/a	n/a	n/a	j	2	0.02000000000000001	2	j	1	0.4218142650815935
8	41	102	n/a	n/a	n/a	f	2	0.03000000000000001	2	f	1	0.394971088147031
8	42	102	n/a	n/a	n/a	j	2	0.04000000000000001	1	j	1	0.374969138072629
8	43	82	n/a	n/a	n/a	j	2	0.03000000000000001	1	j	1	0.4347326544557291
8	44	82	n/a	n/a	n/a	j	2	0.02000000000000001	2	j	1	0.3976119568087597
8	45	102	n/a	n/a	n/a	f	2	0.03000000000000001	1	f	1	0.3936664767907132
8	46	82	n/a	n/a	n/a	j	2	0.02000000000000001	1	j	1	0.3322328526001002
8	47	82	n/a	n/a	n/a	j	2	0.01000000000000001	0	j	1	0.4646831214195117
8	48	62	n/a	n/a	n/a	j	2	0.02000000000000001	2	j	1	0.4213247507241249
8	49	102	n/a	n/a	n/a	f	2	0.03000000000000001	2	f	1	0.3696338022064083
8	50	102	n/a	n/a	n/a	j	2	0.04000000000000001	1	j	1	0.4291150709404974
8	51	82	n/a	n/a	n/a	j	2	0.03000000000000001	2	j	1	0.4246341756852416
8	52	102	n/a	n/a	n/a	j	2	0.04000000000000001	1	j	1	0.4512130661851188
8	53	82	n/a	n/a	n/a	f	2	0.03000000000000001	2	f	1	0.5903865310283436
8	54	102	n/a	n/a	n/a	j	2	0.04000000000000001	2	j	1	0.3773822129242035
8	55	102	n/a	n/a	n/a	j	2	0.05000000000000002	1	j	1	0.4224275122469408
8	56	82	n/a	n/a	n/a	j	2	0.04000000000000001	1	j	1	0.3853661151151755
8	57	82	n/a	n/a	n/a	f	2	0.03000000000000001	1	f	1	0.4053404106216476
8	58	82	n/a	n/a	n/a	j	2	0.02000000000000001	2	j	1	0.3685036712149667
8	59	102	n/a	n/a	n/a	j	2	0.03000000000000001	1	j	1	0.4445180949251153
8	60	82	n/a	n/a	n/a	j	2	0.02000000000000001	2	j	1	0.3668070492349216
8	61	102	n/a	n/a	n/a	f	2	0.03000000000000001	1	f	1	0.4028073092449631
8	62	82	n/a	n/a	n/a	j	2	0.02000000000000001	1	j	1	0.4062470242834024
8	63	82	n/a	n/a	n/a	j	2	0.01000000000000001	2	j	1	0.3859351719920596
8	64	102	n/a	n/a	n/a	j	2	0.02000000000000001	1	j	1	0.4152105253851914
8	65	82	n/a	n/a	n/a	f	2	0.01000000000000001	2	f	1	0.3552673968606541
8	66	102	n/a	n/a	n/a	j	2	0.02000000000000001	0	j	1	0.3902241958649029
8	67	62	n/a	n/a	n/a	j	2	0.03000000000000001	1	j	1	0.4341108543321752
8	68	82	n/a	n/a	n/a	j	2	0.02000000000000001	2	j	1	0.4063356899587234
8	69	102	n/a	n/a	n/a	f	2	0.03000000000000001	1	f	1	0.4247159989936335
8	70	82	n/a	n/a	n/a	j	2	0.02000000000000001	2	j	1	0.3887456743404982
8	71	102	n/a	n/a	n/a	j	2	0.03000000000000001	1	j	1	0.4411037536656295
9	0	88	j	1	3.410752152922214	j	8	0.1	0	j	1	0.6417886746285149
9	1	68	n/a	n/a	n/a	j	8	0.11	1	j	1	0.5794333265475871
9	2	88	n/a	n/a	n/a	f	8	0.1	1	f	1	0.5915237894851089
9	3	88	n/a	n/a	n/a	j	8	0.09000000000000001	1	j	1	0.6352698943246651
9	4	88	n/a	n/a	n/a	j	8	0.08000000000000002	1	j	1	0.6076723464020688
9	5	88	n/a	n/a	n/a	j	8	0.07000000000000002	1	j	1	0.6261011222050001
9	6	88	n/a	n/a	n/a	j	8	0.06000000000000002	1	j	1	0.6714332307547011
9	7	88	n/a	n/a	n/a	j	8	0.05000000000000002	2	j	1	0.6273136467025324
9	8	108	n/a	n/a	n/a	f	8	0.06000000000000002	1	f	1	0.6143664623650693
9	9	88	n/a	n/a	n/a	j	8	0.05000000000000002	1	j	1	0.6422716317165396
9	10	88	n/a	n/a	n/a	j	8	0.04000000000000001	2	j	1	0.6062383002654315
9	11	108	n/a	n/a	n/a	j	8	0.05000000000000002	1	j	1	0.6342138889785929
9	12	88	n/a	n/a	n/a	j	8	0.04000000000000001	2	j	1	0.6691989127475608
9	13	108	n/a	n/a	n/a	j	8	0.05000000000000002	2	j	1	0.6281606747488695
9	14	108	n/a	n/a	n/a	f	8	0.06000000000000002	1	f	1	0.6162903079584794
9	15	88	n/a	n/a	n/a	j	8	0.05000000000000002	1	j	1	0.6430582188522749
9	16	88	n/a	n/a	n/a	j	8	0.04000000000000001	2	j	1	0.5900441275671255
9	17	108	n/a	n/a	n/a	j	8	0.05000000000000002	1	j	1	0.6162968652270138
9	18	88	n/a	n/a	n/a	j	8	0.04000000000000001	1	j	1	0.6509677102985734
9	19	88	n/a	n/a	n/a	j	8	0.03000000000000001	2	j	1	0.5829896469285814
9	20	108	n/a	n/a	n/a	f	8	0.04000000000000001	1	f	1	0.5696450350924351
9	21	88	n/a	n/a	n/a	j	8	0.03000000000000001	1	j	1	0.6208650006647076
9	22	88	n/a	n/a	n/a	j	8	0.02000000000000001	2	j	1	0.5849688016569417
9	23	108	n/a	n/a	n/a	j	8	0.03000000000000001	1	j	1	0.5877778785124974
9	24	88	n/a	n/a	n/a	j	8	0.02000000000000001	1	j	1	0.6067363675811066
9	25	88	n/a	n/a	n/a	j	8	0.01000000000000001	2	j	1	0.5857040710370711
9	26	108	n/a	n/a	n/a	f	8	0.02000000000000001	1	f	1	0.5826406861979194
9	27	88	n/a	n/a	n/a	j	8	0.01000000000000001	1	j	1	0.6023726478642857
9	28	88	n/a	n/a	n/a	j	8	1.040834085586084e-17	2	j	1	0.5905553094207789
9	29	108	n/a	n/a	n/a	j	8	0.01000000000000001	1	j	1	0.6176416754906313
9	30	88	n/a	n/a	n/a	j	8	1.040834085586084e-17	2	j	1	0.7016653751697959
9	31	108	n/a	n/a	n/a	j	8	0.01000000000000001	2	j	1	0.6326295958615447
9	32	108	n/a	n/a	n/a	f	8	0.02000000000000001	2	f	1	0.5884683874082839
9	33	108	n/a	n/a	n/a	j	8	0.03000000000000001	1	j	1	0.601468029894022
9	34	88	n/a	n/a	n/a	j	8	0.02000000000000001	1	j	1	0.5584460755881082
9	35	88	n/a	n/a	n/a	j	8	0.01000000000000001	0	j	1	0.5472006450072513
9	36	68	n/a	n/a	n/a	j	8	0.02000000000000001	0	j	1	0.5925122264552556
9	37	68	n/a	n/a	n/a	j	8	0.03000000000000001	1	j	1	0.6589767011691947
9	38	88	n/a	n/a	n/a	f	8	0.02000000000000001	2	f	1	0.5903021418316712
9	39	108	n/a	n/a	n/a	j	8	0.03000000000000001	1	j	1	0.5781820286365473
9	40	88	n/a	n/a	n/a	j	8	0.02000000000000001	1	j	1	0.591188513490124
9	41	88	n/a	n/a	n/a	j	8	0.01000000000000001	1	j	1	0.5941370035789078
9	42	88	n/a	n/a	n/a	j	8	1.040834085586084e-17	2	j	1	0.6701317554834532
9	43	108	n/a	n/a	n/a	j	8	0.01000000000000001	2	j	1	0.6329742801117391
9	44	108	n/a	n/a	n/a	f	8	0.02000000000000001	2	f	1	0.5810310193019177
9	45	108	n/a	n/a	n/a	j	8	0.03000000000000001	1	j	1	0.5602339291317548
9	46	88	n/a	n/a	n/a	j	8	0.02000000000000001	0	j	1	0.571921832796761
9	47	68	n/a	n/a	n/a	j	8	0.03000000000000001	1	j	1	0.576157258126841
9	48	88	n/a	n/a	n/a	j	8	0.02000000000000001	1	j	1	0.6505953714804491
9	49	88	n/a	n/a	n/a	j	8	0.01000000000000001	2	j	1	0.6149167027315343
9	50	108	n/a	n/a	n/a	f	8	0.02000000000000001	2	f	1	0.5789295572585615
9	51	108	n/a	n/a	n/a	j	8	0.03000000000000001	1	j	1	0.57373306442787
9	52	88	n/a	n/a	n/a	j	8	0.02000000000000001	1	j	1	0.5450356059682235
9	53	88	n/a	n/a	n/a	j	8	0.01000000000000001	0	j	1	0.5797301142274591
9	54	68	n/a	n/a	n/a	j	8	0.02000000000000001	1	j	1	0.561781729624272
9	55	88	n/a	n/a	n/a	j	8	0.01000000000000001	0	j	1	0.5406684650688476
9	56	68	n/a	n/a	n/a	f	8	0.02000000000000001	0	f	1	0.6008259877662567
9	57	68	n/a	n/a	n/a	j	8	0.03000000000000001	1	j	1	0.6286219643416189
9	58	88	n/a	n/a	n/a	j	8	0.02000000000000001	2	j	1	0.5757076575782776
9	59	108	n/a	n/a	n/a	j	8	0.03000000000000001	1	j	1	0.580099316961423
9	60	88	n/a	n/a	n/a	j	8	0.02000000000000001	1	j	1	0.5595545390833649
9	61	88	n/a	n/a	n/a	j	8	0.01000000000000001	0	j	1	0.5465095659146755
9	62	68	n/a	n/a	n/a	f	8	0.02000000000000001	0	f	1	0.5904347126979701
9	63	68	n/a	n/a	n/a	j	8	0.03000000000000001	1	j	1	0.5534243482225065
9	64	88	n/a	n/a	n/a	j	8	0.02000000000000001	0	j	1	0.5663116618452477
9	65	68	n/a	n/a	n/a	j	8	0.03000000000000001	1	j	1	0.5773116225018384
9	66	88	n/a	n/a	n/a	j	8	0.02000000000000001	1	j	1	0.6049259912451816
9	67	88	n/a	n/a	n/a	j	8	0.01000000000000001	2	j	1	0.560953518088354
9	68	108	n/a	n/a	n/a	f	8	0.02000000000000001	0	f	1	0.5794056719805667
9	69	68	n/a	n/a	n/a	j	8	0.03000000000000001	1	j	1	0.6061376604466204
9	70	88	n/a	n/a	n/a	j	8	0.02000000000000001	2	j	1	0.5691569462287589
9	71	108	n/a	n/a	n/a	j	8	0.03000000000000001	1	j	1	0.6041778924254686
10	0	81	f	1	0.9669579234323464	f	1	0.1	2	f	1	0.3556294721283848
10	1	101	n/a	n/a	n/a	j	1	0.11	1	j	1	0.3902261915554845
10	2	81	n/a	n/a	n/a	f	1	0.1	1	f	1	0.401041408295896
10	3	81	n/a	n/a	n/a	f	1	0.09000000000000001	1	f	1	0.4203454369107931
10	4	81	n/a	n/a	n/a	f	1	0.08000000000000002	1	f	1	0.3498496674892522
10	5	81	n/a	n/a	n/a	j	1	0.07000000000000002	1	j	1	0.4092140457833011
10	6	81	n/a	n/a	n/a	f	1	0.06000000000000002	1	f	1	0.3961998632667019
10	7	81	n/a	n/a	n/a	f	1	0.05000000000000002	1	f	1	0.4071952623453399
10	8	81	n/a	n/a	n/a	f	1	0.04000000000000001	1	f	1	0.379343121338934
10	9	81	n/a	n/a	n/a	j	1	0.03000000000000001	1	j	1	0.3822465658440706
10	10	81	n/a	n/a	n/a	f	1	0.02000000000000001	1	f	1	0.3688010290925376
10	11	81	n/a	n/a	n/a	f	1	0.01000000000000001	0	f	1	0.4200828610673852
10	12	61	n/a	n/a	n/a	f	1	0.02000000000000001	2	f	1	0.3507779486471918
10	13	101	n/a	n/a	n/a	j	1	0.03000000000000001	0	j	1	0.4100049093985945
10	14	61	n/a	n/a	n/a	f	1	0.04000000000000001	1	f	1	0.3810611257176788
10	15	81	n/a	n/a	n/a	f	1	0.03000000000000001	1	f	1	0.3779455678277372
10	16	81	n/a	n/a	n/a	f	1	0.02000000000000001	1	f	1	0.3660170409157217
10	17	81	n/a	n/a	n/a	j	1	0.01000000000000001	0	j	1	0.4018020514558884
10	18	61	n/a	n/a	n/a	f	1	0.02000000000000001	1	f	1	0.3487343616279759
10	19	81	n/a	n/a	n/a	f	1	0.01000000000000001	0	f	1	0.4339443567287162
10	20	61	n/a	n/a	n/a	f	1	0.02000000000000001	2	f	1	0.3808897814369629
10	21	101	n/a	n/a	n/a	j	1	0.03000000000000001	1	j	1	0.3756949991993679
10	22	81	n/a	n/a	n/a	f	1	0.02000000000000001	1	f	1	0.3877714923037274
10	23	81	n/a	n/a	n/a	f	1	0.01000000000000001	1	f	1	0.3999953814018227
10	24	81	n/a	n/a	n/a	f	1	1.040834085586084e-17	2	f	1	0.4037552622085059
10	25	101	n/a	n/a	n/a	j	1	0.01000000000000001	2	j	1	0.3678573526085529
10	26	101	n/a	n/a	n/a	f	1	0.02000000000000001	1	f	1	0.4107666929530751
10	27	81	n/a	n/a	n/a	f	1	0.01000000000000001	2	f	1	0.4217817638373162
10	28	101	n/a	n/a	n/a	f	1	0.02000000000000001	2	f	1	0.3698675830873981
10	29	101	n/a	n/a	n/a	j	1	0.03000000000000001	1	j	1	0.3735912563670354
10	30	81	n/a	n/a	n/a	f	1	0.02000000000000001	1	f	1	0.3697352973204033
10	31	81	n/a	n/a	n/a	f	1	0.01000000000000001	0	f	1	0.3886535874817127
10	32	61	n/a	n/a	n/a	f	1	0.02000000000000001	1	f	1	0.463689552674623
10	33	81	n/a	n/a	n/a	j	1	0.01000000000000001	2	j	1	0.3943378840776859
10	34	101	n/a	n/a	n/a	f	1	0.02000000000000001	1	f	1	0.4287093755829119
10	35	81	n/a	n/a	n/a	f	1	0.01000000000000001	2	f	1	0.3768314023600396
10	36	101	n/a	n/a	n/a	f	1	0.02000000000000001	1	f	1	0.4846311878527558
10	37	81	n/a	n/a	n/a	j	1	0.01000000000000001	2	j	1	0.3191958621928279
10	38	101	n/a	n/a	n/a	f	1	0.02000000000000001	0	f	1	0.4020580700298524
10	39	61	n/a	n/a	n/a	f	1	0.03000000000000001	1	f	1	0.4054262253112029
10	40	81	n/a	n/a	n/a	f	1	0.02000000000000001	2	f	1	0.4085919605604431
10	41	101	n/a	n/a	n/a	j	1	0.03000000000000001	1	j	1	0.4273722629814074
10	42	81	n/a	n/a	n/a	f	1	0.02000000000000001	2	f	1	0.4154180771929532
10	43	101	n/a	n/a	n/a	f	1	0.03000000000000001	1	f	1	0.4193963435527621
10	44	81	n/a	n/a	n/a	f	1	0.02000000000000001	2	f	1	0.3704754133786992
10	45	101	n/a	n/a	n/a	j	1	0.03000000000000001	1	j	1	0.4384013036988108
10	46	81	n/a	n/a	n/a	f	1	0.02000000000000001	2	f	1	0.3770298310109865
10	47	101	n/a	n/a	n/a	f	1	0.03000000000000001	1	f	1	0.3583216585448099
10	48	81	n/a	n/a	n/a	f	1	0.02000000000000001	0	f	1	0.3692551912190538
10	49	61	n/a	n/a	n/a	j	1	0.03000000000000001	1	j	1	0.4291053775878026
10	50	81	n/a	n/a	n/a	f	1	0.02000000000000001	2	f	1	0.3613839029885639
10	51	101	n/a	n/a	n/a	f	1	0.03000000000000001	1	f	1	0.4131529685328132
10	52	81	n/a	n/a	n/a	f	1	0.02000000000000001	2	f	1	0.3522701549054545
10	53	101	n/a	n/a	n/a	j	1	0.03000000000000001	0	j	1	0.4111344701923372
10	54	61	n/a	n/a	n/a	f	1	0.04000000000000001	1	f	1	0.3682904174356736
10	55	81	n/a	n/a	n/a	f	1	0.03000000000000001	1	f	1	0.3807338324841112
10	56	81	n/a	n/a	n/a	f	1	0.02000000000000001	1	f	1	0.3691320286079645
10	57	81	n/a	n/a	n/a	j	1	0.01000000000000001	0	j	1	0.4200018930550868
10	58	61	n/a	n/a	n/a	f	1	0.02000000000000001	2	f	1	0.3522427854368289
10	59	101	n/a	n/a	n/a	f	1	0.03000000000000001	0	f	1	0.382015635949756
10	60	61	n/a	n/a	n/a	f	1	0.04000000000000001	1	f	1	0.3547653381638156
10	61	81	n/a	n/a	n/a	j	1	0.03000000000000001	0	j	1	0.3826476996246129
10	62	61	n/a	n/a	n/a	f	1	0.04000000000000001	1	f	1	0.3619806144333779
10	63	81	n/a	n/a	n/a	f	1	0.03000000000000001	1	f	1	0.3729500695353636
10	64	81	n/a	n/a	n/a	f	1	0.02000000000000001	1	f	1	0.3451729094713301
10	65	81	n/a	n/a	n/a	j	1	0.01000000000000001	0	j	1	0.3958295201391593
10	66	61	n/a	n/a	n/a	f	1	0.02000000000000001	1	f	1	0.3691505600190794
10	67	81	n/a	n/a	n/a	f	1	0.01000000000000001	0	f	1	0.396762933071841
10	68	61	n/a	n/a	n/a	f	1	0.02000000000000001	1	f	1	0.3768941240605272
10	69	81	n/a	n/a	n/a	j	1	0.01000000000000001	0	j	1	0.3899051704920566
10	70	61	n/a	n/a	n/a	f	1	0.02000000000000001	1	f	1	0.4093771222023861
10	71	81	n/a	n/a	n/a	f	1	0.01000000000000001	2	f	1	0.366727506715506
11	0	105	f	1	0.8284313473941438	f	5	0.1	0	f	1	0.6179139446876434
11	1	65	n/a	n/a	n/a	j	5	0.11	1	j	1	0.5717023068464187
11	2	85	n/a	n/a	n/a	f	5	0.1	1	f	1	0.5746054662531606
11	3	85	n/a	n/a	n/a	f	5	0.09000000000000001	1	f	1	0.5856111288821921
11	4	85	n/a	n/a	n/a	f	5	0.08000000000000002	1	f	1	0.6043811677527628
11	5	85	n/a	n/a	n/a	j	5	0.07000000000000002	1	j	1	0.5515492544955123
11	6	85	n/a	n/a	n/a	f	5	0.06000000000000002	1	f	1	0.6034337849860094
11	7	85	n/a	n/a	n/a	f	5	0.05000000000000002	1	f	1	0.5902767680536272
11	8	85	n/a	n/a	n/a	f	5	0.04000000000000001	1	f	1	0.5944922364787999
11	9	85	n/a	n/a	n/a	j	5	0.03000000000000001	1	j	1	0.5573815172838295
11	10	85	n/a	n/a	n/a	f	5	0.02000000000000001	0	f	1	0.5925393108254866
11	11	65	n/a	n/a	n/a	f	5	0.03000000000000001	1	f	1	0.5870423240330638
11	12	85	n/a	n/a	n/a	f	5	0.02000000000000001	1	f	1	0.5908834579495306
11	13	85	n/a	n/a	n/a	j	5	0.01000000000000001	1	j	1	0.6272095857002569
11	14	85	n/a	n/a	n/a	f	5	1.040834085586084e-17	2	f	1	0.5747371818224565
11	15	105	n/a	n/a	n/a	f	5	0.01000000000000001	0	f	1	0.5802395854889255
11	16	65	n/a	n/a	n/a	f	5	0.02000000000000001	1	f	1	0.5683293048896303
11	17	85	n/a	n/a	n/a	j	5	0.01000000000000001	0	j	1	0.6121763346463922
11	18	65	n/a	n/a	n/a	f	5	0.02000000000000001	2	f	1	0.6150971701672461
11	19	105	n/a	n/a	n/a	f	5	0.03000000000000001	2	f	1	0.4900640274518082
11	20	105	n/a	n/a	n/a	f	5	0.04000000000000001	0	f	1	0.5421877556982508
11	21	65	n/a	n/a	n/a	j	5	0.05000000000000002	1	j	1	0.5450652562267351
11	22	85	n/a	n/a	n/a	f	5	0.04000000000000001	0	f	1	0.525937133469597
11	23	65	n/a	n/a	n/a	f	5	0.05000000000000002	0	f	1	0.5771188958242419
11	24	65	n/a	n/a	n/a	f	5	0.06000000000000002	1	f	1	0.6048398914572317
11	25	85	n/a	n/a	n/a	j	5	0.05000000000000002	1	j	1	0.5680576058903171
11	26	85	n/a	n/a	n/a	f	5	0.04000000000000001	1	f	1	0.5405427365703872
11	27	85	n/a	n/a	n/a	f	5	0.03000000000000001	0	f	1	0.5689231653468596
11	28	65	n/a	n/a	n/a	f	5	0.04000000000000001	1	f	1	0.5664790147448002
11	29	85	n/a	n/a	n/a	j	5	0.03000000000000001	1	j	1	0.5925743779580444
11	30	85	n/a	n/a	n/a	f	5	0.02000000000000001	1	f	1	0.5477819611251107
11	31	85	n/a	n/a	n/a	f	5	0.01000000000000001	0	f	1	0.590642549603217
11	32	65	n/a	n/a	n/a	f	5	0.02000000000000001	1	f	1	0.5543620376338367
11	33	85	n/a	n/a	n/a	j	5	0.01000000000000001	0	j	1	0.5838204243527798
11	34	65	n/a	n/a	n/a	f	5	0.02000000000000001	1	f	1	0.5545348074074354
11	35	85	n/a	n/a	n/a	f	5	0.01000000000000001	0	f	1	0.6327524733733298
11	36	65	n/a	n/a	n/a	f	5	0.02000000000000001	2	f	1	0.5166979419873314
11	37	105	n/a	n/a	n/a	j	5	0.03000000000000001	0	j	1	0.5910089013495963
11	38	65	n/a	n/a	n/a	f	5	0.04000000000000001	1	f	1	0.5313922107634426
11	39	85	n/a	n/a	n/a	f	5	0.03000000000000001	0	f	1	0.5572589248704389
11	40	65	n/a	n/a	n/a	f	5	0.04000000000000001	1	f	1	0.5923594135865642
11	41	85	n/a	n/a	n/a	j	5	0.03000000000000001	1	j	1	0.604384018739438
11	42	85	n/a	n/a	n/a	f	5	0.02000000000000001	2	f	1	0.5923317590186343
11	43	105	n/a	n/a	n/a	f	5	0.03000000000000001	1	f	1	0.5952471776663515
11	44	85	n/a	n/a	n/a	f	5	0.02000000000000001	1	f	1	0.5531908524390019
11	45	85	n/a	n/a	n/a	j	5	0.01000000000000001	0	j	1	0.5960659809470599
11	46	65	n/a	n/a	n/a	f	5	0.02000000000000001	1	f	1	0.5346255143895178
11	47	85	n/a	n/a	n/a	f	5	0.01000000000000001	0	f	1	0.5781615015348507
11	48	65	n/a	n/a	n/a	f	5	0.02000000000000001	1	f	1	0.5651387660591354
11	49	85	n/a	n/a	n/a	j	5	0.01000000000000001	0	j	1	0.5848727234160833
11	50	65	n/a	n/a	n/a	f	5	0.02000000000000001	1	f	1	0.5639858271761113
11	51	85	n/a	n/a	n/a	f	5	0.01000000000000001	0	f	1	0.5350514517504052
11	52	65	n/a	n/a	n/a	f	5	0.02000000000000001	0	f	1	0.5869251484937195
11	53	65	n/a	n/a	n/a	j	5	0.03000000000000001	0	f	0	0.6240957384025023
11	54	125	n/a	n/a	n/a	f	5	0.02000000000000001	2	f	1	0.562889908021134
11	55	105	n/a	n/a	n/a	f	5	0.03000000000000001	1	f	1	0.5898864680211773
11	56	85	n/a	n/a	n/a	f	5	0.02000000000000001	1	f	1	0.5771123385557075
11	57	85	n/a	n/a	n/a	j	5	0.01000000000000001	1	j	1	0.5872592840942161
11	58	85	n/a	n/a	n/a	f	5	1.040834085586084e-17	0	f	1	0.5508094235356111
11	59	65	n/a	n/a	n/a	f	5	0.01000000000000001	0	f	1	0.6094319751800867
11	60	65	n/a	n/a	n/a	f	5	0.02000000000000001	2	f	1	0.5656505181095781
11	61	105	n/a	n/a	n/a	j	5	0.03000000000000001	1	j	1	0.5696019851984602
11	62	85	n/a	n/a	n/a	f	5	0.02000000000000001	1	f	1	0.5725333693699213
11	63	85	n/a	n/a	n/a	f	5	0.01000000000000001	0	f	1	0.5755388791858422
11	64	65	n/a	n/a	n/a	f	5	0.02000000000000001	1	f	1	0.5783097528246799
11	65	85	n/a	n/a	n/a	j	5	0.01000000000000001	0	j	1	0.5744078928992167
11	66	65	n/a	n/a	n/a	f	5	0.02000000000000001	1	f	1	0.5375147039621879
11	67	85	n/a	n/a	n/a	f	5	0.01000000000000001	0	f	1	0.5481739717488381
11	68	65	n/a	n/a	n/a	f	5	0.02000000000000001	0	f	1	0.6095405977612245
11	69	65	n/a	n/a	n/a	j	5	0.03000000000000001	1	j	1	0.5414875534488601
11	70	85	n/a	n/a	n/a	f	5	0.02000000000000001	0	f	1	0.5459547639702578
11	71	65	n/a	n/a	n/a	f	5	0.03000000000000001	0	f	1	0.5823282180936076
12	0	64	j	1	1.041302239334982	j	4	0.02000000000000001	2	j	1	0.409651672189284
12	1	104	n/a	n/a	n/a	j	4	0.03000000000000001	1	j	1	0.3794930832218597
12	2	84	n/a	n/a	n/a	f	4	0.02000000000000001	1	f	1	0.3353863286083651
12	3	84	n/a	n/a	n/a	j	4	0.01000000000000001	0	j	1	0.4344244628309752
12	4	64	n/a	n/a	n/a	j	4	0.02000000000000001	2	j	1	0.3654676558444407
12	5	104	n/a	n/a	n/a	j	4	0.03000000000000001	1	j	1	0.3864774295961979
12	6	84	n/a	n/a	n/a	j	4	0.02000000000000001	1	j	1	0.3974252172019987
12	7	84	n/a	n/a	n/a	j	4	0.01000000000000001	2	j	1	0.3454260770595283
12	8	104	n/a	n/a	n/a	f	4	0.02000000000000001	0	f	1	0.3723636216418527
12	9	64	n/a	n/a	n/a	j	4	0.03000000000000001	1	j	1	0.3843192329250087
12	10	84	n/a	n/a	n/a	j	4	0.02000000000000001	1	j	1	0.3483643035979185
12	11	84	n/a	n/a	n/a	j	4	0.01000000000000001	0	j	1	0.3844258598146553
12	12	64	n/a	n/a	n/a	j	4	0.02000000000000001	1	j	1	0.4202587669260538
12	13	84	n/a	n/a	n/a	j	4	0.01000000000000001	2	j	1	0.3109396908048438
12	14	104	n/a	n/a	n/a	f	4	0.02000000000000001	0	f	1	0.3463001894770059
12	15	64	n/a	n/a	n/a	j	4	0.03000000000000001	0	j	1	0.4282295545790475
12	16	64	n/a	n/a	n/a	j	4	0.04000000000000001	2	j	1	0.3609003757028404
12	17	104	n/a	n/a	n/a	j	4	0.05000000000000002	1	j	1	0.3800111074424422
12	18	84	n/a	n/a	n/a	j	4	0.04000000000000001	1	j	1	0.4024272727638163
12	19	84	n/a	n/a	n/a	j	4	0.03000000000000001	1	j	1	0.3746703547021752
12	20	84	n/a	n/a	n/a	f	4	0.02000000000000001	1	f	1	0.4352789034428497
12	21	84	n/a	n/a	n/a	j	4	0.01000000000000001	2	j	1	0.3507491536847738
12	22	104	n/a	n/a	n/a	j	4	0.02000000000000001	0	j	1	0.3632059683686748
12	23	64	n/a	n/a	n/a	j	4	0.03000000000000001	1	j	1	0.3667260812217137
12	24	84	n/a	n/a	n/a	j	4	0.02000000000000001	1	j	1	0.3945884857785131
12	25	84	n/a	n/a	n/a	j	4	0.01000000000000001	1	j	1	0.3908967435463637
12	26	84	n/a	n/a	n/a	f	4	1.040834085586084e-17	2	f	1	0.3651591791212923
12	27	104	n/a	n/a	n/a	j	4	0.01000000000000001	0	j	1	0.362020528242283
12	28	64	n/a	n/a	n/a	j	4	0.02000000000000001	0	j	1	0.3659041418568449
12	29	64	n/a	n/a	n/a	j	4	0.03000000000000001	1	j	1	0.4110452343193174
12	30	84	n/a	n/a	n/a	j	4	0.02000000000000001	2	j	1	0.3978856514986546
12	31	104	n/a	n/a	n/a	j	4	0.03000000000000001	1	j	1	0.3689455741005077
12	32	84	n/a	n/a	n/a	f	4	0.02000000000000001	1	f	1	0.3809499372500795
12	33	84	n/a	n/a	n/a	j	4	0.01000000000000001	1	j	1	0.4086449889073265
12	34	84	n/a	n/a	n/a	j	4	1.040834085586084e-17	2	j	1	0.365915260703332
12	35	104	n/a	n/a	n/a	j	4	0.01000000000000001	0	j	1	0.4028258406560781
12	36	64	n/a	n/a	n/a	j	4	0.02000000000000001	2	j	1	0.4158408784687708
12	37	104	n/a	n/a	n/a	j	4	0.03000000000000001	2	j	1	0.3380351800306016
12	38	104	n/a	n/a	n/a	f	4	0.04000000000000001	0	f	1	0.4065021875621824
12	39	64	n/a	n/a	n/a	j	4	0.05000000000000002	1	j	1	0.3863223359394397
12	40	84	n/a	n/a	n/a	j	4	0.04000000000000001	1	j	1	0.3656675099882705
12	41	84	n/a	n/a	n/a	j	4	0.03000000000000001	1	j	1	0.3767510045454401
12	42	84	n/a	n/a	n/a	j	4	0.02000000000000001	1	j	1	0.3950916848707493
12	43	84	n/a	n/a	n/a	j	4	0.01000000000000001	1	j	1	0.3506046086768038
12	44	84	n/a	n/a	n/a	f	4	1.040834085586084e-17	0	f	1	0.3455757538440594
12	45	64	n/a	n/a	n/a	j	4	0.01000000000000001	0	j	1	0.404555819176494
12	46	64	n/a	n/a	n/a	j	4	0.02000000000000001	1	j	1	0.374463658192326
12	47	84	n/a	n/a	n/a	j	4	0.01000000000000001	0	j	1	0.3944815737895624
12	48	64	n/a	n/a	n/a	j	4	0.02000000000000001	1	j	1	0.398418785947797
12	49	84	n/a	n/a	n/a	j	4	0.01000000000000001	2	j	1	0.3775373065818712
12	50	104	n/a	n/a	n/a	f	4	0.02000000000000001	1	f	1	0.3560146403851832
12	51	84	n/a	n/a	n/a	j	4	0.01000000000000001	0	j	1	0.3995457808541687
12	52	64	n/a	n/a	n/a	j	4	0.02000000000000001	1	j	1	0.373058977214896
12	53	84	n/a	n/a	n/a	j	4	0.01000000000000001	1	j	1	0.3924759048895794
12	54	84	n/a	n/a	n/a	j	4	1.040834085586084e-17	2	j	1	0.4113642596930731
12	55	104	n/a	n/a	n/a	j	4	0.01000000000000001	2	j	1	0.3588499463166954
12	56	104	n/a	n/a	n/a	f	4	0.02000000000000001	0	f	1	0.3852657603956686
12	57	64	n/a	n/a	n/a	j	4	0.03000000000000001	1	j	1	0.3742834758550089
12	58	84	n/a	n/a	n/a	j	4	0.02000000000000001	1	j	1	0.3451917259817492
12	59	84	n/a	n/a	n/a	j	4	0.01000000000000001	0	j	1	0.3647221229130082
12	60	64	n/a	n/a	n/a	j	4	0.02000000000000001	1	j	1	0.4007865301155107
12	61	84	n/a	n/a	n/a	j	4	0.01000000000000001	2	j	1	0.3560736558019926
12	62	104	n/a	n/a	n/a	f	4	0.02000000000000001	0	f	1	0.3612376473884069
12	63	64	n/a	n/a	n/a	j	4	0.03000000000000001	1	j	1	0.3643167126529079
12	64	84	n/a	n/a	n/a	j	4	0.02000000000000001	0	j	1	0.3911145589036096
12	65	64	n/a	n/a	n/a	j	4	0.03000000000000001	1	j	1	0.3620823946457676
12	66	84	n/a	n/a	n/a	j	4	0.02000000000000001	0	j	1	0.4140350637107986
12	67	64	n/a	n/a	n/a	j	4	0.03000000000000001	2	j	1	0.3372257850051028
12	68	104	n/a	n/a	n/a	f	4	0.04000000000000001	0	f	1	0.388135848359525
12	69	64	n/a	n/a	n/a	j	4	0.05000000000000002	1	j	1	0.3589542924164562
12	70	84	n/a	n/a	n/a	j	4	0.04000000000000001	1	j	1	0.3859685285315209
12	71	84	n/a	n/a	n/a	j	4	0.03000000000000001	1	j	1	0.3660655076837429
13	0	92	j	1	0.8171739426688873	j	12	0.06000000000000002	0	j	1	0.959413643337939
13	1	72	n/a	n/a	n/a	j	12	0.07000000000000002	1	j	1	0.898389990985379
13	2	92	n/a	n/a	n/a	f	12	0.06000000000000002	0	f	1	0.9185176695582413
13	3	72	n/a	n/a	n/a	j	12	0.07000000000000002	1	j	1	0.9543038204928962
13	4	92	n/a	n/a	n/a	j	12	0.06000000000000002	1	j	1	0.9011323547611028
13	5	92	n/a	n/a	n/a	j	12	0.05000000000000002	0	j	1	0.9282563538508839
13	6	72	n/a	n/a	n/a	j	12	0.06000000000000002	1	j	1	0.9381239027261472
13	7	92	n/a	n/a	n/a	j	12	0.05000000000000002	0	j	1	0.9580006945006971
13	8	72	n/a	n/a	n/a	f	12	0.06000000000000002	1	f	1	0.9700349930062657
13	9	92	n/a	n/a	n/a	j	12	0.05000000000000002	1	j	1	0.964990457748172
13	10	92	n/a	n/a	n/a	j	12	0.04000000000000001	1	j	1	0.9785893775670047
13	11	92	n/a	n/a	n/a	j	12	0.03000000000000001	1	j	1	0.9908925240870303
13	12	92	n/a	n/a	n/a	j	12	0.02000000000000001	1	j	1	0.9616941473241241
13	13	92	n/a	n/a	n/a	j	12	0.01000000000000001	0	j	1	0.9243841441821132
13	14	72	n/a	n/a	n/a	f	12	0.02000000000000001	0	f	1	0.9067028970011961
13	15	72	n/a	n/a	n/a	j	12	0.03000000000000001	0	j	1	0.9502725257862039
13	16	72	n/a	n/a	n/a	j	12	0.04000000000000001	1	j	1	0.929124479195707
13	17	92	n/a	n/a	n/a	j	12	0.03000000000000001	0	j	1	0.9565446957685708
13	18	72	n/a	n/a	n/a	j	12	0.04000000000000001	1	j	1	1.016583332335358
13	19	92	n/a	n/a	n/a	j	12	0.03000000000000001	1	j	1	0.981357115121682
13	20	92	n/a	n/a	n/a	f	12	0.02000000000000001	1	f	1	0.9689610264458679
13	21	92	n/a	n/a	n/a	j	12	0.01000000000000001	0	j	1	0.9569560930995067
13	22	72	n/a	n/a	n/a	j	12	0.02000000000000001	0	j	1	0.9208948219811646
13	23	72	n/a	n/a	n/a	j	12	0.03000000000000001	0	j	1	0.9238427418740685
13	24	72	n/a	n/a	n/a	j	12	0.04000000000000001	0	j	1	0.992211390374905
13	25	72	n/a	n/a	n/a	j	12	0.05000000000000002	1	j	1	0.9629973331866495
13	26	92	n/a	n/a	n/a	f	12	0.04000000000000001	1	f	1	1.00815410607629
13	27	92	n/a	n/a	n/a	j	12	0.03000000000000001	1	j	1	0.970977814194157
13	28	92	n/a	n/a	n/a	j	12	0.02000000000000001	1	j	1	0.9738664335700378
13	29	92	n/a	n/a	n/a	j	12	0.01000000000000001	1	j	1	0.9609962258637097
13	30	92	n/a	n/a	n/a	j	12	1.040834085586084e-17	0	j	1	0.9728072921388957
13	31	72	n/a	n/a	n/a	j	12	0.01000000000000001	0	j	1	0.9606418482608206
13	32	72	n/a	n/a	n/a	f	12	0.02000000000000001	0	j	0	1.860411716641465
13	33	132	n/a	n/a	n/a	j	12	0.03000000000000001	2	j	1	0.8717090351747174
13	34	112	n/a	n/a	n/a	j	12	0.04000000000000001	0	j	1	0.8824948867559215
13	35	72	n/a	n/a	n/a	j	12	0.05000000000000002	0	j	1	0.8929303521135807
13	36	72	n/a	n/a	n/a	j	12	0.06000000000000002	0	j	1	1.016915757344577
13	37	72	n/a	n/a	n/a	j	12	0.07000000000000002	1	j	1	0.9173248168672217
13	38	92	n/a	n/a	n/a	f	12	0.06000000000000002	0	f	1	0.8560511330106237
13	39	72	n/a	n/a	n/a	j	12	0.07000000000000002	0	j	1	0.9548517800703848
13	40	72	n/a	n/a	n/a	j	12	0.08000000000000002	1	j	1	0.8882866655376347
13	41	92	n/a	n/a	n/a	j	12	0.07000000000000002	0	j	1	0.9247202754731916
13	42	72	n/a	n/a	n/a	j	12	0.08000000000000002	1	j	1	0.960249552537789
13	43	92	n/a	n/a	n/a	j	12	0.07000000000000002	1	j	1	0.9470808465603113
13	44	92	n/a	n/a	n/a	f	12	0.06000000000000002	1	f	1	0.9739605161203144
13	45	92	n/a	n/a	n/a	j	12	0.05000000000000002	1	j	1	1.049017863710105
13	46	92	n/a	n/a	n/a	j	12	0.04000000000000001	2	j	1	0.9793867984499229
13	47	112	n/a	n/a	n/a	j	12	0.05000000000000002	1	j	1	0.9028232747677976
13	48	92	n/a	n/a	n/a	j	12	0.04000000000000001	0	j	1	1.001833754424297
13	49	72	n/a	n/a	n/a	j	12	0.05000000000000002	1	j	1	0.9988202618451396
13	50	92	n/a	n/a	n/a	f	12	0.04000000000000001	1	f	1	1.017274411427934
13	51	92	n/a	n/a	n/a	j	12	0.03000000000000001	1	j	1	0.9655509616659401
13	52	92	n/a	n/a	n/a	j	12	0.02000000000000001	1	j	1	0.9602352976053226
13	53	92	n/a	n/a	n/a	j	12	0.01000000000000001	0	j	1	1.004439841051862
13	54	72	n/a	n/a	n/a	j	12	0.02000000000000001	2	j	1	0.9930977620333579
13	55	112	n/a	n/a	n/a	j	12	0.03000000000000001	1	j	1	1.004308410580961
13	56	92	n/a	n/a	n/a	f	12	0.02000000000000001	1	f	1	1.022256510084844
13	57	92	n/a	n/a	n/a	j	12	0.01000000000000001	2	j	1	1.018014242387835
13	58	112	n/a	n/a	n/a	j	12	0.02000000000000001	2	j	1	0.9820980864751618
13	59	112	n/a	n/a	n/a	j	12	0.03000000000000001	1	j	1	0.9528147503187938
13	60	92	n/a	n/a	n/a	j	12	0.02000000000000001	0	j	1	0.9880133129654496
13	61	72	n/a	n/a	n/a	j	12	0.03000000000000001	1	j	1	0.9762230588912644
13	62	92	n/a	n/a	n/a	f	12	0.02000000000000001	1	f	1	0.9629907759190246
13	63	92	n/a	n/a	n/a	j	12	0.01000000000000001	0	j	1	0.9506910505824635
13	64	72	n/a	n/a	n/a	j	12	0.02000000000000001	0	j	1	0.9776667983824154
13	65	72	n/a	n/a	n/a	j	12	0.03000000000000001	1	j	1	0.9968180141286211
13	66	92	n/a	n/a	n/a	j	12	0.02000000000000001	1	j	1	1.048948584741993
13	67	92	n/a	n/a	n/a	j	12	0.01000000000000001	2	j	1	1.043637482260237
13	68	112	n/a	n/a	n/a	f	12	0.02000000000000001	2	f	1	0.9505661773810061
13	69	112	n/a	n/a	n/a	j	12	0.03000000000000001	0	j	1	0.9844410270616208
13	70	72	n/a	n/a	n/a	j	12	0.04000000000000001	1	j	1	0.8995745758156772
13	71	92	n/a	n/a	n/a	j	12	0.03000000000000001	0	j	1	1.006101395900259
14	0	66	j	1	1.109008318607266	j	6	0.02000000000000001	2	j	1	0.6824403188766155
14	1	106	n/a	n/a	n/a	f	6	0.03000000000000001	2	f	1	0.5813360748425112
14	2	106	n/a	n/a	n/a	j	6	0.04000000000000001	1	j	1	0.6091922072282614
14	3	86	n/a	n/a	n/a	j	6	0.03000000000000001	1	j	1	0.6463425551337423
14	4	86	n/a	n/a	n/a	j	6	0.02000000000000001	2	j	1	0.6170244369441207
14	5	106	n/a	n/a	n/a	f	6	0.03000000000000001	2	f	1	0.6280859789058013
14	6	106	n/a	n/a	n/a	j	6	0.04000000000000001	1	j	1	0.599069209974914
14	7	86	n/a	n/a	n/a	j	6	0.03000000000000001	1	j	1	0.5960924951205016
14	8	86	n/a	n/a	n/a	j	6	0.02000000000000001	1	j	1	0.58699870394139
14	9	86	n/a	n/a	n/a	f	6	0.01000000000000001	1	f	1	0.5511894600176674
14	10	86	n/a	n/a	n/a	j	6	1.040834085586084e-17	0	j	1	0.5949119016704572
14	11	66	n/a	n/a	n/a	j	6	0.01000000000000001	2	j	1	0.6160599482609541
14	12	106	n/a	n/a	n/a	j	6	0.02000000000000001	2	j	1	0.5868706946539533
14	13	106	n/a	n/a	n/a	f	6	0.03000000000000001	1	f	1	0.5908312848996502
14	14	86	n/a	n/a	n/a	j	6	0.02000000000000001	1	j	1	0.5789221446948432
14	15	86	n/a	n/a	n/a	j	6	0.01000000000000001	0	j	1	0.5427995773698058
14	16	66	n/a	n/a	n/a	j	6	0.02000000000000001	0	j	1	0.6028242441043403
14	17	66	n/a	n/a	n/a	f	6	0.03000000000000001	1	f	1	0.5909419031704601
14	18	86	n/a	n/a	n/a	j	6	0.02000000000000001	1	j	1	0.5382545349220891
14	19	86	n/a	n/a	n/a	j	6	0.01000000000000001	0	j	1	0.5823595789443061
14	20	66	n/a	n/a	n/a	j	6	0.02000000000000001	1	j	1	0.6026275260455805
14	21	86	n/a	n/a	n/a	f	6	0.01000000000000001	2	f	1	0.5266376208173824
14	22	106	n/a	n/a	n/a	j	6	0.02000000000000001	0	j	1	0.5771836132144017
14	23	66	n/a	n/a	n/a	j	6	0.03000000000000001	1	j	1	0.5887512052540842
14	24	86	n/a	n/a	n/a	j	6	0.02000000000000001	1	j	1	0.5594795581428116
14	25	86	n/a	n/a	n/a	f	6	0.01000000000000001	0	f	1	0.5624787957895023
14	26	66	n/a	n/a	n/a	j	6	0.02000000000000001	0	j	1	0.6143573392091639
14	27	66	n/a	n/a	n/a	j	6	0.03000000000000001	2	j	1	0.5625597638008912
14	28	106	n/a	n/a	n/a	j	6	0.04000000000000001	1	j	1	0.5332214036088772
14	29	86	n/a	n/a	n/a	f	6	0.03000000000000001	0	f	1	0.5369516341570488
14	30	66	n/a	n/a	n/a	j	6	0.04000000000000001	0	j	1	0.6142444401493776
14	31	66	n/a	n/a	n/a	j	6	0.05000000000000002	1	j	1	0.5932546233016183
14	32	86	n/a	n/a	n/a	j	6	0.04000000000000001	1	j	1	0.596245307989193
14	33	86	n/a	n/a	n/a	f	6	0.03000000000000001	1	f	1	0.5910374112136196
14	34	86	n/a	n/a	n/a	j	6	0.02000000000000001	1	j	1	0.6186586223229824
14	35	86	n/a	n/a	n/a	j	6	0.01000000000000001	2	j	1	0.6060182041182998
14	36	106	n/a	n/a	n/a	j	6	0.02000000000000001	2	j	1	0.6012741628219374
14	37	106	n/a	n/a	n/a	f	6	0.03000000000000001	1	f	1	0.5880698195151126
14	38	86	n/a	n/a	n/a	j	6	0.02000000000000001	1	j	1	0.5985340798360994
14	39	86	n/a	n/a	n/a	j	6	0.01000000000000001	2	j	1	0.5540119365095961
14	40	106	n/a	n/a	n/a	j	6	0.02000000000000001	0	j	1	0.5659319104634051
14	41	66	n/a	n/a	n/a	f	6	0.03000000000000001	1	f	1	0.5290324493562366
14	42	86	n/a	n/a	n/a	j	6	0.02000000000000001	0	j	1	0.5958410381244903
14	43	66	n/a	n/a	n/a	j	6	0.03000000000000001	1	j	1	0.5828034775195192
14	44	86	n/a	n/a	n/a	j	6	0.02000000000000001	1	j	1	0.6094821525402949
14	45	86	n/a	n/a	n/a	f	6	0.01000000000000001	2	f	1	0.6046950613499575
14	46	106	n/a	n/a	n/a	j	6	0.02000000000000001	2	j	1	0.5836054599812996
14	47	106	n/a	n/a	n/a	j	6	0.03000000000000001	1	j	1	0.5956873699587959
14	48	86	n/a	n/a	n/a	j	6	0.02000000000000001	1	j	1	0.6086439625523781
14	49	86	n/a	n/a	n/a	f	6	0.01000000000000001	2	f	1	0.5806256090418174
14	50	106	n/a	n/a	n/a	j	6	0.02000000000000001	1	j	1	0.6236281766405227
14	51	86	n/a	n/a	n/a	j	6	0.01000000000000001	2	j	1	0.5862061297348191
14	52	106	n/a	n/a	n/a	j	6	0.02000000000000001	1	j	1	0.5576264170113063
14	53	86	n/a	n/a	n/a	f	6	0.01000000000000001	0	f	1	0.5606689896503667
14	54	66	n/a	n/a	n/a	j	6	0.02000000000000001	0	j	1	0.5325026699483715
14	55	66	n/a	n/a	n/a	j	6	0.03000000000000001	0	j	1	0.5845699486653757
14	56	66	n/a	n/a	n/a	j	6	0.04000000000000001	1	j	1	0.6191162056338726
14	57	86	n/a	n/a	n/a	f	6	0.03000000000000001	1	f	1	0.5823022741178647
14	58	86	n/a	n/a	n/a	j	6	0.02000000000000001	1	j	1	0.5931796423610649
14	59	86	n/a	n/a	n/a	j	6	0.01000000000000001	1	j	1	0.6232809265020478
14	60	86	n/a	n/a	n/a	j	6	1.040834085586084e-17	2	j	1	0.6022586084109207
14	61	106	n/a	n/a	n/a	f	6	0.01000000000000001	2	f	1	0.5982104928834815
14	62	106	n/a	n/a	n/a	j	6	0.02000000000000001	1	j	1	0.6431542970922237
14	63	86	n/a	n/a	n/a	j	6	0.01000000000000001	2	j	1	0.6221422425514902
14	64	106	n/a	n/a	n/a	j	6	0.02000000000000001	2	j	1	0.6248749129736098
14	65	106	n/a	n/a	n/a	f	6	0.03000000000000001	2	f	1	0.6510509591007576
14	66	106	n/a	n/a	n/a	j	6	0.04000000000000001	2	j	1	0.5740777486780644
14	67	106	n/a	n/a	n/a	j	6	0.05000000000000002	1	j	1	0.5530713961106812
14	68	86	n/a	n/a	n/a	j	6	0.04000000000000001	1	j	1	0.5879247043103533
14	69	86	n/a	n/a	n/a	f	6	0.03000000000000001	1	f	1	0.5761042297799577
14	70	86	n/a	n/a	n/a	j	6	0.02000000000000001	1	j	1	0.5624035297496448
14	71	86	n/a	n/a	n/a	j	6	0.01000000000000001	0	j	1	0.5668539194502955
15	0	69	f	1	3.183959609506019	f	9	0.02000000000000001	0	f	1	1.028274372084525
15	1	69	n/a	n/a	n/a	j	9	0.03000000000000001	2	j	1	0.9752169458070057
15	2	109	n/a	n/a	n/a	f	9	0.04000000000000001	1	f	1	1.027043886373576
15	3	89	n/a	n/a	n/a	f	9	0.03000000000000001	2	f	1	1.013691006677618
15	4	109	n/a	n/a	n/a	f	9	0.04000000000000001	1	f	1	1.090189812969584
15	5	89	n/a	n/a	n/a	j	9	0.03000000000000001	2	j	1	1.029841844383554
15	6	109	n/a	n/a	n/a	f	9	0.04000000000000001	2	f	1	0.9999292955390047
15	7	109	n/a	n/a	n/a	f	9	0.05000000000000002	1	f	1	0.9727973136868968
15	8	89	n/a	n/a	n/a	f	9	0.04000000000000001	1	f	1	1.175832872899264
15	9	89	n/a	n/a	n/a	j	9	0.03000000000000001	2	j	1	1.002625473334774
15	10	109	n/a	n/a	n/a	f	9	0.04000000000000001	1	f	1	0.9815350166700227
15	11	89	n/a	n/a	n/a	f	9	0.03000000000000001	1	f	1	1.016581336644776
15	12	89	n/a	n/a	n/a	f	9	0.02000000000000001	2	f	1	1.067022127645032
15	13	109	n/a	n/a	n/a	j	9	0.03000000000000001	2	j	1	0.9831654957670253
15	14	109	n/a	n/a	n/a	f	9	0.04000000000000001	1	f	1	0.9555308850203801
15	15	89	n/a	n/a	n/a	f	9	0.03000000000000001	0	f	1	0.9583373959894743
15	16	69	n/a	n/a	n/a	f	9	0.04000000000000001	1	f	1	0.9942632452557518
15	17	89	n/a	n/a	n/a	j	9	0.03000000000000001	1	j	1	1.016346985566997
15	18	89	n/a	n/a	n/a	f	9	0.02000000000000001	2	f	1	0.9629816527622097
15	19	109	n/a	n/a	n/a	f	9	0.03000000000000001	1	f	1	1.041194757150151
15	20	89	n/a	n/a	n/a	f	9	0.02000000000000001	2	f	1	0.9991307342597793
15	21	109	n/a	n/a	n/a	j	9	0.03000000000000001	1	j	1	1.025904347126925
15	22	89	n/a	n/a	n/a	f	9	0.02000000000000001	2	f	1	0.9906578879090375
15	23	109	n/a	n/a	n/a	f	9	0.03000000000000001	1	f	1	0.8828407114006041
15	24	89	n/a	n/a	n/a	f	9	0.02000000000000001	0	f	1	1.022736901285498
15	25	69	n/a	n/a	n/a	j	9	0.03000000000000001	2	j	1	0.9457289088313701
15	26	109	n/a	n/a	n/a	f	9	0.04000000000000001	0	f	1	1.485281782938728
15	27	69	n/a	n/a	n/a	f	9	0.05000000000000002	2	f	1	0.8884685584671388
15	28	109	n/a	n/a	n/a	f	9	0.06000000000000002	0	f	1	0.9312051290389718
15	29	69	n/a	n/a	n/a	j	9	0.07000000000000002	1	j	1	0.9014670605592983
15	30	89	n/a	n/a	n/a	f	9	0.06000000000000002	0	f	1	0.8965026380174095
15	31	69	n/a	n/a	n/a	f	9	0.07000000000000002	0	f	1	0.9313282916491517
15	32	69	n/a	n/a	n/a	f	9	0.08000000000000002	1	f	1	0.9020341217456007
15	33	89	n/a	n/a	n/a	j	9	0.07000000000000002	0	j	1	0.9142771124534192
15	34	69	n/a	n/a	n/a	f	9	0.08000000000000002	1	f	1	0.8931917875634099
15	35	89	n/a	n/a	n/a	f	9	0.07000000000000002	0	f	1	0.8402814721803225
15	36	69	n/a	n/a	n/a	f	9	0.08000000000000002	0	f	1	0.8840834563534372
15	37	69	n/a	n/a	n/a	j	9	0.09000000000000001	0	j	1	0.8791809002159425
15	38	69	n/a	n/a	n/a	f	9	0.1	0	f	1	0.8590053250718483
15	39	69	n/a	n/a	n/a	f	9	0.11	0	f	1	0.901699130848101
15	40	69	n/a	n/a	n/a	f	9	0.12	1	f	1	1.016565941318731
15	41	89	n/a	n/a	n/a	j	9	0.11	1	j	1	0.9077991012545681
15	42	89	n/a	n/a	n/a	f	9	0.1	1	f	1	0.9027286220216411
15	43	89	n/a	n/a	n/a	f	9	0.09000000000000001	1	f	1	0.8969408346210912
15	44	89	n/a	n/a	n/a	f	9	0.08000000000000002	0	f	1	1.484442737653808
15	45	69	n/a	n/a	n/a	j	9	0.09000000000000001	2	j	1	0.8486137649042576
15	46	109	n/a	n/a	n/a	f	9	0.1	0	f	1	0.8355300183202417
15	47	69	n/a	n/a	n/a	f	9	0.11	0	f	1	0.8633832997202262
15	48	69	n/a	n/a	n/a	f	9	0.12	0	f	1	0.8744368589195801
15	49	69	n/a	n/a	n/a	j	9	0.13	1	j	1	0.8375502272519952
15	50	89	n/a	n/a	n/a	f	9	0.12	0	f	1	0.8493778292477145
15	51	69	n/a	n/a	n/a	f	9	0.13	0	f	1	0.9174456986884252
15	52	69	n/a	n/a	n/a	f	9	0.14	1	f	1	0.8496823145906092
15	53	89	n/a	n/a	n/a	j	9	0.13	0	j	1	0.9412172229222051
15	54	69	n/a	n/a	n/a	f	9	0.14	1	f	1	0.9302069987152208
15	55	89	n/a	n/a	n/a	f	9	0.13	1	f	1	0.9351531749434798
15	56	89	n/a	n/a	n/a	f	9	0.12	1	f	1	1.019042308067583
15	57	89	n/a	n/a	n/a	j	9	0.11	1	j	1	0.9597269667383443
15	58	89	n/a	n/a	n/a	f	9	0.1	1	f	1	0.9219043562497973
15	59	89	n/a	n/a	n/a	f	9	0.09000000000000002	1	f	1	0.981971502680608
15	60	89	n/a	n/a	n/a	f	9	0.08000000000000003	1	f	1	0.9784217395690575
15	61	89	n/a	n/a	n/a	j	9	0.07000000000000003	1	j	1	0.9658497450363939
15	62	89	n/a	n/a	n/a	f	9	0.06000000000000003	1	f	1	0.9778438446355722
15	63	89	n/a	n/a	n/a	f	9	0.05000000000000003	1	f	1	0.9906920997455018
15	64	89	n/a	n/a	n/a	f	9	0.04000000000000003	1	f	1	0.9372580581703005
15	65	89	n/a	n/a	n/a	j	9	0.03000000000000003	0	j	1	0.9095225225073591
15	66	69	n/a	n/a	n/a	f	9	0.04000000000000003	0	f	1	1.000308191625663
15	67	69	n/a	n/a	n/a	f	9	0.05000000000000003	1	f	1	0.9893643954001163
15	68	89	n/a	n/a	n/a	f	9	0.04000000000000003	1	f	1	1.016548550302105
15	69	89	n/a	n/a	n/a	j	9	0.03000000000000003	2	j	1	1.019333393775014
15	70	109	n/a	n/a	n/a	f	9	0.04000000000000003	1	f	1	0.9264111954807959
15	71	89	n/a	n/a	n/a	f	9	0.03000000000000003	0	f	1	0.9951025756381568
16	0	63	f	1	0.9691839735787653	f	3	0.02000000000000001	2	f	1	0.4484789702692069
16	1	103	n/a	n/a	n/a	f	3	0.03000000000000001	2	f	1	0.4275792445914703
16	2	103	n/a	n/a	n/a	j	3	0.04000000000000001	1	j	1	0.3823797069071588
16	3	83	n/a	n/a	n/a	f	3	0.03000000000000001	1	f	1	0.4263960852531454
16	4	83	n/a	n/a	n/a	f	3	0.02000000000000001	2	f	1	0.4133188959385734
16	5	103	n/a	n/a	n/a	f	3	0.03000000000000001	2	f	1	0.4016287114855004
16	6	103	n/a	n/a	n/a	f	3	0.04000000000000001	1	f	1	0.4283039653228116
16	7	83	n/a	n/a	n/a	f	3	0.03000000000000001	2	f	1	0.3926640699883137
16	8	103	n/a	n/a	n/a	j	3	0.04000000000000001	1	j	1	0.3951210500290472
16	9	83	n/a	n/a	n/a	f	3	0.03000000000000001	1	f	1	0.3897238477593419
16	10	83	n/a	n/a	n/a	f	3	0.02000000000000001	1	f	1	0.3928807449519809
16	11	83	n/a	n/a	n/a	f	3	0.01000000000000001	1	f	1	0.3962124076069813
16	12	83	n/a	n/a	n/a	f	3	1.040834085586084e-17	2	f	1	0.3821345220812873
16	13	103	n/a	n/a	n/a	f	3	0.01000000000000001	1	f	1	0.39478691442946
16	14	83	n/a	n/a	n/a	j	3	1.040834085586084e-17	2	j	1	0.4061247169674971
16	15	103	n/a	n/a	n/a	f	3	0.01000000000000001	2	f	1	0.3852691815782237
16	16	103	n/a	n/a	n/a	f	3	0.02000000000000001	1	f	1	0.3490987176837734
16	17	83	n/a	n/a	n/a	f	3	0.01000000000000001	0	f	1	0.4092836098507178
16	18	63	n/a	n/a	n/a	f	3	0.02000000000000001	2	f	1	0.3875799060197096
16	19	103	n/a	n/a	n/a	f	3	0.03000000000000001	1	f	1	0.3991070140536976
16	20	83	n/a	n/a	n/a	j	3	0.02000000000000001	1	j	1	0.3789730633106956
16	21	83	n/a	n/a	n/a	f	3	0.01000000000000001	1	f	1	0.3813966868119678
16	22	83	n/a	n/a	n/a	f	3	1.040834085586084e-17	0	f	1	0.3851323342332762
16	23	63	n/a	n/a	n/a	f	3	0.01000000000000001	1	f	1	0.3306437128057951
16	24	83	n/a	n/a	n/a	f	3	1.040834085586084e-17	0	f	1	0.4138705617988307
16	25	63	n/a	n/a	n/a	f	3	0.01000000000000001	2	f	1	0.3778896884950882
16	26	103	n/a	n/a	n/a	j	3	0.02000000000000001	1	j	1	0.3807939882954088
16	27	83	n/a	n/a	n/a	f	3	0.01000000000000001	1	f	1	0.3608328073260054
16	28	83	n/a	n/a	n/a	f	3	1.040834085586084e-17	0	f	1	0.3717951349626674
16	29	63	n/a	n/a	n/a	f	3	0.01000000000000001	0	f	1	0.3839548768692111
16	30	63	n/a	n/a	n/a	f	3	0.02000000000000001	1	f	1	0.434770572574962
16	31	83	n/a	n/a	n/a	f	3	0.01000000000000001	2	f	1	0.356881625335518
16	32	103	n/a	n/a	n/a	j	3	0.02000000000000001	0	j	1	0.367920074308131
16	33	63	n/a	n/a	n/a	f	3	0.03000000000000001	1	f	1	0.402722634949896
16	34	83	n/a	n/a	n/a	f	3	0.02000000000000001	1	f	1	0.3736237576122221
16	35	83	n/a	n/a	n/a	f	3	0.01000000000000001	1	f	1	0.3764325493684737
16	36	83	n/a	n/a	n/a	f	3	1.040834085586084e-17	0	f	1	0.4215944540337659
16	37	63	n/a	n/a	n/a	f	3	0.01000000000000001	2	f	1	0.3604875528781122
16	38	103	n/a	n/a	n/a	j	3	0.02000000000000001	0	j	1	0.3872836885375364
16	39	63	n/a	n/a	n/a	f	3	0.03000000000000001	1	f	1	0.3825080012929902
16	40	83	n/a	n/a	n/a	f	3	0.02000000000000001	1	f	1	0.3623287198670369
16	41	83	n/a	n/a	n/a	f	3	0.01000000000000001	0	f	1	0.405260012807048
16	42	63	n/a	n/a	n/a	f	3	0.02000000000000001	2	f	1	0.3523819135698432
16	43	103	n/a	n/a	n/a	f	3	0.03000000000000001	0	f	1	0.4027850715510795
16	44	63	n/a	n/a	n/a	j	3	0.04000000000000001	1	j	1	0.3344329587707762
16	45	83	n/a	n/a	n/a	f	3	0.03000000000000001	0	f	1	0.4520894593906633
16	46	63	n/a	n/a	n/a	f	3	0.04000000000000001	2	f	1	0.3992769328406212
16	47	103	n/a	n/a	n/a	f	3	0.05000000000000002	1	f	1	0.4033889104612172
16	48	83	n/a	n/a	n/a	f	3	0.04000000000000001	1	f	1	0.3823061514594883
16	49	83	n/a	n/a	n/a	f	3	0.03000000000000001	1	f	1	0.3863585434655761
16	50	83	n/a	n/a	n/a	j	3	0.02000000000000001	1	j	1	0.3573115540784784
16	51	83	n/a	n/a	n/a	f	3	0.01000000000000001	0	f	1	0.3552405975888178
16	52	63	n/a	n/a	n/a	f	3	0.02000000000000001	0	f	1	0.4084847634740072
16	53	63	n/a	n/a	n/a	f	3	0.03000000000000001	1	f	1	0.4191876513514217
16	54	83	n/a	n/a	n/a	f	3	0.02000000000000001	2	f	1	0.3670468171876564
16	55	103	n/a	n/a	n/a	f	3	0.03000000000000001	1	f	1	0.4168726504303777
16	56	83	n/a	n/a	n/a	j	3	0.02000000000000001	2	j	1	0.3491186745877712
16	57	103	n/a	n/a	n/a	f	3	0.03000000000000001	0	f	1	0.3781320223351941
16	58	63	n/a	n/a	n/a	f	3	0.04000000000000001	1	f	1	0.3821758613821657
16	59	83	n/a	n/a	n/a	f	3	0.03000000000000001	1	f	1	0.38004303848993
16	60	83	n/a	n/a	n/a	f	3	0.02000000000000001	1	f	1	0.4082606759466216
16	61	83	n/a	n/a	n/a	f	3	0.01000000000000001	2	f	1	0.3560568349830646
16	62	103	n/a	n/a	n/a	j	3	0.02000000000000001	0	j	1	0.3990018126578434
16	63	63	n/a	n/a	n/a	f	3	0.03000000000000001	1	f	1	0.321665671673145
16	64	83	n/a	n/a	n/a	f	3	0.02000000000000001	0	f	1	0.4288989661754385
16	65	63	n/a	n/a	n/a	f	3	0.03000000000000001	2	f	1	0.3920930174217574
16	66	103	n/a	n/a	n/a	f	3	0.04000000000000001	1	f	1	0.3879590872056724
16	67	83	n/a	n/a	n/a	f	3	0.03000000000000001	1	f	1	0.4227456823236935
16	68	83	n/a	n/a	n/a	j	3	0.02000000000000001	2	j	1	0.3228619455467197
16	69	103	n/a	n/a	n/a	f	3	0.03000000000000001	0	f	1	0.3657747070756159
16	70	63	n/a	n/a	n/a	f	3	0.04000000000000001	1	f	1	0.3689598290320646
16	71	83	n/a	n/a	n/a	f	3	0.03000000000000001	1	f	1	0.3728038139352066
17	0	91	f	1	0.8638716736832066	f	11	0.02000000000000001	0	f	1	1.030978247544226
17	1	71	n/a	n/a	n/a	f	11	0.03000000000000001	2	f	1	1.02517620521121
17	2	111	n/a	n/a	n/a	j	11	0.04000000000000001	1	j	1	1.012118687702241
17	3	91	n/a	n/a	n/a	f	11	0.03000000000000001	1	f	1	1.015065467198838
17	4	91	n/a	n/a	n/a	f	11	0.02000000000000001	2	f	1	1.010016655463005
17	5	111	n/a	n/a	n/a	f	11	0.03000000000000001	1	f	1	1.006023278873727
17	6	91	n/a	n/a	n/a	f	11	0.02000000000000001	2	f	1	1.033742278816135
17	7	111	n/a	n/a	n/a	f	11	0.03000000000000001	2	f	1	0.899761030323134
17	8	111	n/a	n/a	n/a	j	11	0.04000000000000001	0	j	1	0.8547784527017939
17	9	71	n/a	n/a	n/a	f	11	0.05000000000000002	0	f	1	0.9616379828930803
17	10	71	n/a	n/a	n/a	f	11	0.06000000000000002	1	f	1	0.9827087677522286
17	11	91	n/a	n/a	n/a	f	11	0.05000000000000002	1	f	1	0.9936471471028199
17	12	91	n/a	n/a	n/a	f	11	0.04000000000000001	1	f	1	1.012540633683784
17	13	91	n/a	n/a	n/a	f	11	0.03000000000000001	1	f	1	0.9755416731532023
17	14	91	n/a	n/a	n/a	j	11	0.02000000000000001	1	j	1	0.9544936961838175
17	15	91	n/a	n/a	n/a	f	11	0.01000000000000001	0	f	1	0.981384199491913
17	16	71	n/a	n/a	n/a	f	11	0.02000000000000001	1	f	1	0.9445520216622754
17	17	91	n/a	n/a	n/a	f	11	0.01000000000000001	0	f	1	1.019379864851544
17	18	71	n/a	n/a	n/a	f	11	0.02000000000000001	2	f	1	1.006284144125857
17	19	111	n/a	n/a	n/a	f	11	0.03000000000000001	1	f	1	0.9707779600512367
17	20	91	n/a	n/a	n/a	j	11	0.02000000000000001	1	j	1	0.9270808921755815
17	21	91	n/a	n/a	n/a	f	11	0.01000000000000001	0	f	1	0.9301690805968974
17	22	71	n/a	n/a	n/a	f	11	0.02000000000000001	0	f	1	0.9010351361266657
17	23	71	n/a	n/a	n/a	f	11	0.03000000000000001	0	f	1	1.015795034608345
17	24	71	n/a	n/a	n/a	f	11	0.04000000000000001	1	f	1	0.9628850043254715
17	25	91	n/a	n/a	n/a	f	11	0.03000000000000001	1	f	1	0.9338420063186277
17	26	91	n/a	n/a	n/a	j	11	0.02000000000000001	0	j	1	0.9377874863366742
17	27	71	n/a	n/a	n/a	f	11	0.03000000000000001	0	f	1	1.020450125130083
17	28	71	n/a	n/a	n/a	f	11	0.04000000000000001	1	f	1	0.9609052793994124
17	29	91	n/a	n/a	n/a	f	11	0.03000000000000001	1	f	1	1.00464454187204
17	30	91	n/a	n/a	n/a	f	11	0.02000000000000001	1	f	1	1.071552344964402
17	31	91	n/a	n/a	n/a	f	11	0.01000000000000001	2	f	1	1.009858140620963
17	32	111	n/a	n/a	n/a	j	11	0.02000000000000001	2	j	1	0.9471740738144945
17	33	111	n/a	n/a	n/a	f	11	0.03000000000000001	0	f	1	0.9084662320628922
17	34	71	n/a	n/a	n/a	f	11	0.04000000000000001	0	f	1	0.9351240948826671
17	35	71	n/a	n/a	n/a	f	11	0.05000000000000002	1	f	1	1.010249581046992
17	36	91	n/a	n/a	n/a	f	11	0.04000000000000001	1	f	1	1.085122469820817
17	37	91	n/a	n/a	n/a	f	11	0.03000000000000001	2	f	1	0.9763165712447517
17	38	111	n/a	n/a	n/a	j	11	0.04000000000000001	1	j	1	0.9400982107781601
17	39	91	n/a	n/a	n/a	f	11	0.03000000000000001	0	f	1	0.9507175647559052
17	40	71	n/a	n/a	n/a	f	11	0.04000000000000001	1	f	1	0.9810329579722747
17	41	91	n/a	n/a	n/a	f	11	0.03000000000000001	1	f	1	0.9610700664106844
17	42	91	n/a	n/a	n/a	f	11	0.02000000000000001	0	f	1	1.004912249491099
17	43	71	n/a	n/a	n/a	f	11	0.03000000000000001	1	f	1	1.017729428850544
17	44	91	n/a	n/a	n/a	j	11	0.02000000000000001	2	j	1	0.9018103193166098
17	45	111	n/a	n/a	n/a	f	11	0.03000000000000001	0	f	1	0.9925395389036566
17	46	71	n/a	n/a	n/a	f	11	0.04000000000000001	1	f	1	0.9999387037933047
17	47	91	n/a	n/a	n/a	f	11	0.03000000000000001	1	f	1	0.9622771740341705
17	48	91	n/a	n/a	n/a	f	11	0.02000000000000001	0	f	1	0.9812348078057767
17	49	71	n/a	n/a	n/a	f	11	0.03000000000000001	1	f	1	0.9695369256896811
17	50	91	n/a	n/a	n/a	j	11	0.02000000000000001	1	j	1	0.9480322207073186
17	51	91	n/a	n/a	n/a	f	11	0.01000000000000001	0	f	1	0.9272961416463659
17	52	71	n/a	n/a	n/a	f	11	0.02000000000000001	0	f	1	0.9543226370024058
17	53	71	n/a	n/a	n/a	f	11	0.03000000000000001	0	f	1	0.965194018173861
17	54	71	n/a	n/a	n/a	f	11	0.04000000000000001	1	f	1	1.079387425666937
17	55	91	n/a	n/a	n/a	f	11	0.03000000000000001	2	f	1	1.011132816621284
17	56	111	n/a	n/a	n/a	j	11	0.04000000000000001	1	j	1	0.8721860051919066
17	57	91	n/a	n/a	n/a	f	11	0.03000000000000001	0	f	1	0.9697852466024415
17	58	71	n/a	n/a	n/a	f	11	0.04000000000000001	1	f	1	0.9737056379399291
17	59	91	n/a	n/a	n/a	f	11	0.03000000000000001	1	f	1	1.001159211052254
17	60	91	n/a	n/a	n/a	f	11	0.02000000000000001	1	f	1	1.052821934805252
17	61	91	n/a	n/a	n/a	f	11	0.01000000000000001	2	f	1	0.9760454424413183
17	62	111	n/a	n/a	n/a	j	11	0.02000000000000001	1	j	1	0.890412931161336
17	63	91	n/a	n/a	n/a	f	11	0.01000000000000001	0	f	1	0.9769249717319326
17	64	71	n/a	n/a	n/a	f	11	0.02000000000000001	1	f	1	1.051523880717468
17	65	91	n/a	n/a	n/a	f	11	0.01000000000000001	2	f	1	1.007786899033817
17	66	111	n/a	n/a	n/a	f	11	0.02000000000000001	2	f	1	1.003581694159038
17	67	111	n/a	n/a	n/a	f	11	0.03000000000000001	1	f	1	0.9676236287468782
17	68	91	n/a	n/a	n/a	j	11	0.02000000000000001	1	j	1	0.9619786757630209
17	69	91	n/a	n/a	n/a	f	11	0.01000000000000001	0	f	1	1.005349875896172
17	70	71	n/a	n/a	n/a	f	11	0.02000000000000001	2	f	1	0.9684410065347038
17	71	111	n/a	n/a	n/a	f	11	0.03000000000000001	1	f	1	1.02823132219055
18	0	87	f	1	0.9138377754543399	f	7	1.040834085586084e-17	2	f	1	0.6501976588842808
18	1	107	n/a	n/a	n/a	f	7	0.01000000000000001	2	f	1	0.5876849363567089
18	2	107	n/a	n/a	n/a	j	7	0.02000000000000001	1	j	1	0.5832114536660811
18	3	87	n/a	n/a	n/a	f	7	0.01000000000000001	1	f	1	0.57113239467526
18	4	87	n/a	n/a	n/a	f	7	1.040834085586084e-17	0	f	1	0.5660681876106537
18	5	67	n/a	n/a	n/a	f	7	0.01000000000000001	0	f	1	0.5612485951760391
18	6	67	n/a	n/a	n/a	f	7	0.02000000000000001	0	f	1	0.6039746170981743
18	7	67	n/a	n/a	n/a	f	7	0.03000000000000001	1	f	1	0.5921718186837097
18	8	87	n/a	n/a	n/a	j	7	0.02000000000000001	1	j	1	0.5559112636201462
18	9	87	n/a	n/a	n/a	f	7	0.01000000000000001	0	f	1	0.5760201256834989
18	10	67	n/a	n/a	n/a	f	7	0.02000000000000001	1	f	1	0.5709368170109883
18	11	87	n/a	n/a	n/a	f	7	0.01000000000000001	0	f	1	0.5749065304125907
18	12	67	n/a	n/a	n/a	f	7	0.02000000000000001	1	f	1	0.6108172694503082
18	13	87	n/a	n/a	n/a	f	7	0.01000000000000001	2	f	1	0.5657893611451073
18	14	107	n/a	n/a	n/a	j	7	0.02000000000000001	1	j	1	0.5769045016504606
18	15	87	n/a	n/a	n/a	f	7	0.01000000000000001	1	f	1	1.139713441659296
18	16	87	n/a	n/a	n/a	f	7	1.040834085586084e-17	2	f	1	0.5518540249368016
18	17	107	n/a	n/a	n/a	f	7	0.01000000000000001	0	f	1	0.4756197901788255
18	18	67	n/a	n/a	n/a	f	7	0.02000000000000001	0	f	1	0.5022420156701628
18	19	67	n/a	n/a	n/a	f	7	0.03000000000000001	0	f	1	0.5296328670829098
18	20	67	n/a	n/a	n/a	j	7	0.04000000000000001	0	j	1	0.5561176750316008
18	21	67	n/a	n/a	n/a	f	7	0.05000000000000002	1	f	1	0.6236093601301036
18	22	87	n/a	n/a	n/a	f	7	0.04000000000000001	1	f	1	0.6025588172733478
18	23	87	n/a	n/a	n/a	f	7	0.03000000000000001	1	f	1	0.5744423898340756
18	24	87	n/a	n/a	n/a	f	7	0.02000000000000001	1	f	1	0.6332499704931251
18	25	87	n/a	n/a	n/a	f	7	0.01000000000000001	2	f	1	0.5643983649024449
18	26	107	n/a	n/a	n/a	j	7	0.02000000000000001	0	j	1	0.5913524452053025
18	27	67	n/a	n/a	n/a	f	7	0.03000000000000001	1	f	1	0.5472679282847821
18	28	87	n/a	n/a	n/a	f	7	0.02000000000000001	0	f	1	0.5524875141045413
18	29	67	n/a	n/a	n/a	f	7	0.03000000000000001	0	f	1	0.6113378595591712
18	30	67	n/a	n/a	n/a	f	7	0.04000000000000001	1	f	1	0.5978957439911028
18	31	87	n/a	n/a	n/a	f	7	0.03000000000000001	1	f	1	0.6010859977222935
18	32	87	n/a	n/a	n/a	j	7	0.02000000000000001	1	j	1	0.5881168607902509
18	33	87	n/a	n/a	n/a	f	7	0.01000000000000001	1	f	1	0.6071489053065307
18	34	87	n/a	n/a	n/a	f	7	1.040834085586084e-17	2	f	1	0.5620779471073547
18	35	107	n/a	n/a	n/a	f	7	0.01000000000000001	0	f	1	0.582028009230271
18	36	67	n/a	n/a	n/a	f	7	0.02000000000000001	1	f	1	0.5931870549256928
18	37	87	n/a	n/a	n/a	f	7	0.01000000000000001	1	f	1	0.5798341752297347
18	38	87	n/a	n/a	n/a	j	7	1.040834085586084e-17	0	j	1	0.521126093995008
18	39	67	n/a	n/a	n/a	f	7	0.01000000000000001	0	f	1	0.573046832012551
18	40	67	n/a	n/a	n/a	f	7	0.02000000000000001	1	f	1	0.537022908815743
18	41	87	n/a	n/a	n/a	f	7	0.01000000000000001	0	f	1	0.5878531445523549
18	42	67	n/a	n/a	n/a	f	7	0.02000000000000001	1	f	1	0.6067697241214773
18	43	87	n/a	n/a	n/a	f	7	0.01000000000000001	2	f	1	0.5537168594210016
18	44	107	n/a	n/a	n/a	j	7	0.02000000000000001	0	j	1	0.6047480896968409
18	45	67	n/a	n/a	n/a	f	7	0.03000000000000001	1	f	1	0.5761076509634222
18	46	87	n/a	n/a	n/a	f	7	0.02000000000000001	1	f	1	0.5396127448211701
18	47	87	n/a	n/a	n/a	f	7	0.01000000000000001	0	f	1	0.565894562541871
18	48	67	n/a	n/a	n/a	f	7	0.02000000000000001	1	f	1	0.6005685436994099
18	49	87	n/a	n/a	n/a	f	7	0.01000000000000001	2	f	1	0.5952411905946065
18	50	107	n/a	n/a	n/a	j	7	0.02000000000000001	1	j	1	0.5904851751556635
18	51	87	n/a	n/a	n/a	f	7	0.01000000000000001	1	f	1	0.5695395485972767
18	52	87	n/a	n/a	n/a	f	7	1.040834085586084e-17	0	f	1	0.5824180241643262
18	53	67	n/a	n/a	n/a	f	7	0.01000000000000001	1	f	1	0.585354825208924
18	54	87	n/a	n/a	n/a	f	7	1.040834085586084e-17	0	f	1	0.6203866051537261
18	55	67	n/a	n/a	n/a	f	7	0.01000000000000001	2	f	1	0.5605615074646266
18	56	107	n/a	n/a	n/a	j	7	0.02000000000000001	0	j	1	0.564193093884569
18	57	67	n/a	n/a	n/a	f	7	0.03000000000000001	1	f	1	0.5845554086354241
18	58	87	n/a	n/a	n/a	f	7	0.02000000000000001	1	f	1	0.5880854999404619
18	59	87	n/a	n/a	n/a	f	7	0.01000000000000001	1	f	1	0.6005046816044342
18	60	87	n/a	n/a	n/a	f	7	1.040834085586084e-17	2	f	1	0.5951379848893339
18	61	107	n/a	n/a	n/a	f	7	0.01000000000000001	2	f	1	0.6002341229996091
18	62	107	n/a	n/a	n/a	j	7	0.02000000000000001	1	j	1	0.5641337933684554
18	63	87	n/a	n/a	n/a	f	7	0.01000000000000001	0	f	1	0.599092017865587
18	64	67	n/a	n/a	n/a	f	7	0.02000000000000001	1	f	1	0.5540535609106882
18	65	87	n/a	n/a	n/a	f	7	0.01000000000000001	0	f	1	0.597011938220021
18	66	67	n/a	n/a	n/a	f	7	0.02000000000000001	1	f	1	0.6110182639886261
18	67	87	n/a	n/a	n/a	f	7	0.01000000000000001	2	f	1	0.5660011894315176
18	68	107	n/a	n/a	n/a	j	7	0.02000000000000001	1	j	1	0.5694822437717448
18	69	87	n/a	n/a	n/a	f	7	0.01000000000000001	0	f	1	0.5969207066564195
18	70	67	n/a	n/a	n/a	f	7	0.02000000000000001	1	f	1	0.6089806640402458
18	71	87	n/a	n/a	n/a	f	7	0.01000000000000001	2	f	1	0.6115633725803491
19	0	110	j	1	0.6208467543519873	j	10	0.02000000000000001	0	j	1	1.069274121768103
19	1	70	n/a	n/a	n/a	f	10	0.03000000000000001	2	f	1	1.047349466495689
19	2	110	n/a	n/a	n/a	j	10	0.04000000000000001	2	j	1	0.9541239232530643
19	3	110	n/a	n/a	n/a	j	10	0.05000000000000002	1	j	1	0.9886664739406115
19	4	90	n/a	n/a	n/a	j	10	0.04000000000000001	1	j	1	1.047878324464364
19	5	90	n/a	n/a	n/a	f	10	0.03000000000000001	2	f	1	1.011929382209019
19	6	110	n/a	n/a	n/a	j	10	0.04000000000000001	1	j	1	0.9350134766127667
19	7	90	n/a	n/a	n/a	j	10	0.03000000000000001	0	j	1	0.9629366071785626
19	8	70	n/a	n/a	n/a	j	10	0.04000000000000001	1	j	1	0.9977907706725091
19	9	90	n/a	n/a	n/a	f	10	0.03000000000000001	1	f	1	0.9373424473669729
19	10	90	n/a	n/a	n/a	j	10	0.02000000000000001	0	j	1	0.9969910690006145
19	11	70	n/a	n/a	n/a	j	10	0.03000000000000001	1	j	1	0.9186311388148169
19	12	90	n/a	n/a	n/a	j	10	0.02000000000000001	0	j	1	0.981718049994015
19	13	70	n/a	n/a	n/a	f	10	0.03000000000000001	1	f	1	0.9287145073585634
19	14	90	n/a	n/a	n/a	j	10	0.02000000000000001	0	j	1	0.9314742621500045
19	15	70	n/a	n/a	n/a	j	10	0.03000000000000001	0	j	1	0.9665305605776666
19	16	70	n/a	n/a	n/a	j	10	0.04000000000000001	1	j	1	1.002328685655812
19	17	90	n/a	n/a	n/a	f	10	0.03000000000000001	1	f	1	0.981239654483943
19	18	90	n/a	n/a	n/a	j	10	0.02000000000000001	1	j	1	0.976928107817912
19	19	90	n/a	n/a	n/a	j	10	0.01000000000000001	0	j	1	0.9721960406641301
19	20	70	n/a	n/a	n/a	j	10	0.02000000000000001	1	j	1	1.008329726835655
19	21	90	n/a	n/a	n/a	f	10	0.01000000000000001	2	f	1	0.995126523923318
19	22	110	n/a	n/a	n/a	j	10	0.02000000000000001	1	j	1	0.9819829066263992
19	23	90	n/a	n/a	n/a	j	10	0.01000000000000001	1	j	1	0.9859543306201886
19	24	90	n/a	n/a	n/a	j	10	1.040834085586084e-17	0	j	1	0.9888971187365314
19	25	70	n/a	n/a	n/a	f	10	0.01000000000000001	1	f	1	0.9609300829806671
19	26	90	n/a	n/a	n/a	j	10	1.040834085586084e-17	0	j	1	0.9798292715331627
19	27	70	n/a	n/a	n/a	j	10	0.01000000000000001	1	j	1	0.9746778242870278
19	28	90	n/a	n/a	n/a	j	10	1.040834085586084e-17	0	j	1	1.089376141463617
19	29	70	n/a	n/a	n/a	f	10	0.01000000000000001	2	f	1	1.03064411194373
19	30	110	n/a	n/a	n/a	j	10	0.02000000000000001	2	j	1	0.9245686029998978
19	31	110	n/a	n/a	n/a	j	10	0.03000000000000001	0	j	1	1.041516918608067
19	32	70	n/a	n/a	n/a	j	10	0.04000000000000001	2	j	1	1.038496013466101
19	33	110	n/a	n/a	n/a	f	10	0.05000000000000002	2	f	1	1.026360504944023
19	34	110	n/a	n/a	n/a	j	10	0.06000000000000002	1	j	1	0.9413244200095505
19	35	90	n/a	n/a	n/a	j	10	0.05000000000000002	1	j	1	0.945266478843223
19	36	90	n/a	n/a	n/a	j	10	0.04000000000000001	0	j	1	0.9241934131950984
19	37	70	n/a	n/a	n/a	f	10	0.05000000000000002	0	f	1	0.8890122415650694
19	38	70	n/a	n/a	n/a	j	10	0.06000000000000002	0	j	1	0.8769864960177074
19	39	70	n/a	n/a	n/a	j	10	0.07000000000000002	0	j	1	0.9300342289425316
19	40	70	n/a	n/a	n/a	j	10	0.08000000000000002	1	j	1	0.9666947773921493
19	41	90	n/a	n/a	n/a	f	10	0.07000000000000002	1	f	1	0.9639729407181221
19	42	90	n/a	n/a	n/a	j	10	0.06000000000000002	1	j	1	0.912140013080716
19	43	90	n/a	n/a	n/a	j	10	0.05000000000000002	0	j	1	0.9469046556041576
19	44	70	n/a	n/a	n/a	j	10	0.06000000000000002	1	j	1	0.9898216936117024
19	45	90	n/a	n/a	n/a	f	10	0.05000000000000002	1	f	1	1.001831473634411
19	46	90	n/a	n/a	n/a	j	10	0.04000000000000001	1	j	1	0.9657060553236079
19	47	90	n/a	n/a	n/a	j	10	0.03000000000000001	1	j	1	1.040381655841884
19	48	90	n/a	n/a	n/a	j	10	0.02000000000000001	2	j	1	0.9725954638524854
19	49	110	n/a	n/a	n/a	f	10	0.03000000000000001	1	f	1	0.9362870122176901
19	50	90	n/a	n/a	n/a	j	10	0.02000000000000001	0	j	1	0.8749714188616053
19	51	70	n/a	n/a	n/a	j	10	0.03000000000000001	0	j	1	0.9273357703559668
19	52	70	n/a	n/a	n/a	j	10	0.04000000000000001	0	j	1	0.9563579561618099
19	53	70	n/a	n/a	n/a	f	10	0.05000000000000002	1	f	1	0.9590826438225122
19	54	90	n/a	n/a	n/a	j	10	0.04000000000000001	1	j	1	0.9950894611001786
19	55	90	n/a	n/a	n/a	j	10	0.03000000000000001	1	j	1	1.00819116889943
19	56	90	n/a	n/a	n/a	j	10	0.02000000000000001	2	j	1	1.034976185711457
19	57	110	n/a	n/a	n/a	f	10	0.03000000000000001	2	f	1	0.9656946513787261
19	58	110	n/a	n/a	n/a	j	10	0.04000000000000001	1	j	1	0.8662662171227566
19	59	90	n/a	n/a	n/a	j	10	0.03000000000000001	0	j	1	0.9330696741144493
19	60	70	n/a	n/a	n/a	j	10	0.04000000000000001	0	j	1	0.959558188345909
19	61	70	n/a	n/a	n/a	f	10	0.05000000000000002	1	f	1	0.9558174091489491
19	62	90	n/a	n/a	n/a	j	10	0.04000000000000001	1	j	1	0.9916642860926004
19	63	90	n/a	n/a	n/a	j	10	0.03000000000000001	1	j	1	1.036747788632965
19	64	90	n/a	n/a	n/a	j	10	0.02000000000000001	2	j	1	1.032110374226249
19	65	110	n/a	n/a	n/a	f	10	0.03000000000000001	2	f	1	0.9556446393762599
19	66	110	n/a	n/a	n/a	j	10	0.04000000000000001	1	j	1	0.7905175053410858
19	67	90	n/a	n/a	n/a	j	10	0.03000000000000001	0	j	1	0.9051693514411454
19	68	70	n/a	n/a	n/a	j	10	0.04000000000000001	0	j	1	0.9324612736272684
19	69	70	n/a	n/a	n/a	f	10	0.05000000000000002	0	f	1	0.9220785515171883
19	70	70	n/a	n/a	n/a	j	10	0.06000000000000002	0	j	1	0.8853472986047564
19	71	70	n/a	n/a	n/a	j	10	0.07000000000000002	0	j	1	0.9605209664387075
20	0	62	j	1	1.017300070305282	j	2	0.02000000000000001	2	j	1	0.400541060190335
