blockLoop_thisRepN	trialLoop_thisRepN	firstKey	readyKey_corr	readyKey_rt	targetKey	blockType	margin	outcome	trialResp_keys	trialResp_corr	trialResp_rt
0	0	j	0	9.153444338036934	j	8	0.1	0	f	0	0.5273563601076603
0	1	n/a	n/a	n/a	j	8	0.11	0	f	0	0.5451483219512738
0	2	n/a	n/a	n/a	f	8	0.1	0	j	0	0.5321480388229247
0	3	n/a	n/a	n/a	j	8	0.09000000000000001	0	f	0	0.4951115297735669
0	4	n/a	n/a	n/a	j	8	0.08000000000000002	0	f	0	0.5221430182282347
0	5	n/a	n/a	n/a	j	8	0.09000000000000001	1	j	1	0.4530418621143326
0	6	n/a	n/a	n/a	j	8	0.08000000000000002	0	j	1	0.6241301949776243
0	7	n/a	n/a	n/a	j	8	0.09000000000000001	0	f	0	0.01860620794468559
0	8	n/a	n/a	n/a	f	8	0.08000000000000002	0	f	1	0.5268739706079941
0	9	n/a	n/a	n/a	j	8	0.09000000000000001	1	j	1	0.5858312623167876
0	10	n/a	n/a	n/a	j	8	0.08000000000000002	1	j	1	0.5959645780094434
0	11	n/a	n/a	n/a	j	8	0.07000000000000002	1	f	0	0.5104872675728984
0	12	n/a	n/a	n/a	j	8	0.06000000000000002	0	j	1	0.5296836328925565
0	13	n/a	n/a	n/a	j	8	0.07000000000000002	1	j	1	0.5577620092080906
0	14	n/a	n/a	n/a	f	8	0.06000000000000002	1	f	1	0.4807960795296822
0	15	n/a	n/a	n/a	j	8	0.05000000000000002	0	j	1	0.5247297321620863
0	16	n/a	n/a	n/a	j	8	0.06000000000000002	1	j	1	0.5517546633200254
0	17	n/a	n/a	n/a	j	8	0.05000000000000002	1	f	0	0.442744328698609
0	18	n/a	n/a	n/a	j	8	0.04000000000000001	1	f	0	0.5896707064239308
0	19	n/a	n/a	n/a	j	8	0.05000000000000002	1	f	0	0.576801569404779
0	20	n/a	n/a	n/a	f	8	0.04000000000000001	1	j	0	0.4516494328272529
0	21	n/a	n/a	n/a	j	8	0.03000000000000001	1	f	0	0.5181558922049589
0	22	n/a	n/a	n/a	j	8	0.04000000000000001	1	f	0	0.4255530729715247
0	23	n/a	n/a	n/a	j	8	0.05000000000000002	0	j	1	0.4842914077162277
0	24	n/a	n/a	n/a	j	8	0.06000000000000002	0	j	1	0.5027724567044061
0	25	n/a	n/a	n/a	j	8	0.07000000000000002	0	j	1	0.5215226402215194
0	26	n/a	n/a	n/a	f	8	0.08000000000000002	1	f	1	0.5244357938936446
0	27	n/a	n/a	n/a	j	8	0.07000000000000002	1	j	1	0.5114092815492768
0	28	n/a	n/a	n/a	j	8	0.06000000000000002	0	j	1	0.4739579517336097
0	29	n/a	n/a	n/a	j	8	0.07000000000000002	0	f	0	0.5253569525666535
0	30	n/a	n/a	n/a	j	8	0.08000000000000002	1	j	1	0.4962593430827837
0	31	n/a	n/a	n/a	j	8	0.07000000000000002	0	j	1	0.475026222091401
0	32	n/a	n/a	n/a	f	8	0.08000000000000002	0	j	0	0.5021908523340244
0	33	n/a	n/a	n/a	j	8	0.09000000000000001	0	f	0	0.5931637538596988
0	34	n/a	n/a	n/a	j	8	0.08000000000000002	0	f	0	0.3957315941515844
0	35	n/a	n/a	n/a	j	8	0.07000000000000002	0	j	1	0.4632743926777039
0	36	n/a	n/a	n/a	j	8	0.08000000000000002	0	j	1	0.5293015986680984
0	37	n/a	n/a	n/a	j	8	0.09000000000000001	1	j	1	0.4997233102913015
0	38	n/a	n/a	n/a	f	8	0.08000000000000002	0	f	1	0.4231225939292926
0	39	n/a	n/a	n/a	j	8	0.09000000000000001	0	j	1	0.4987716458563227
0	40	n/a	n/a	n/a	j	8	0.1	1	j	1	0.4951870813092683
0	41	n/a	n/a	n/a	j	8	0.09000000000000001	1	f	0	0.4921003016643226
0	42	n/a	n/a	n/a	j	8	0.1	1	j	1	0.503002817655215
0	43	n/a	n/a	n/a	j	8	0.09000000000000001	1	j	1	0.3939913426584098
0	44	n/a	n/a	n/a	f	8	0.08000000000000002	1	j	0	0.4845710910158232
0	45	n/a	n/a	n/a	j	8	0.09000000000000001	1	f	0	0.5280776635627262
0	46	n/a	n/a	n/a	j	8	0.1	1	f	0	0.4824294184800237
0	47	n/a	n/a	n/a	j	8	0.09000000000000001	0	j	1	0.5499228946573567
0	48	n/a	n/a	n/a	j	8	0.1	1	j	1	0.5125080576399341
0	49	n/a	n/a	n/a	j	8	0.09000000000000001	1	j	1	0.5317523197736591
0	50	n/a	n/a	n/a	f	8	0.08000000000000002	1	f	1	0.5262592946237419
0	51	n/a	n/a	n/a	j	8	0.07000000000000002	1	j	1	0.521718504052842
0	52	n/a	n/a	n/a	j	8	0.06000000000000002	0	j	1	0.4630565761472099
0	53	n/a	n/a	n/a	j	8	0.07000000000000002	0	j	1	0.482553151960019
0	54	n/a	n/a	n/a	j	8	0.08000000000000002	0	f	0	0.6456461353809573
0	55	n/a	n/a	n/a	j	8	0.09000000000000001	1	j	1	0.5208110301755369
0	56	n/a	n/a	n/a	f	8	0.08000000000000002	1	j	0	0.5231881954823621
0	57	n/a	n/a	n/a	j	8	0.07000000000000002	1	f	0	0.5423606123949867
0	58	n/a	n/a	n/a	j	8	0.06000000000000002	1	f	0	0.5610874177073129
0	59	n/a	n/a	n/a	j	8	0.05000000000000002	1	f	0	0.5563704352243803
0	60	n/a	n/a	n/a	j	8	0.04000000000000001	1	f	0	0.5754148421401624
0	61	n/a	n/a	n/a	j	8	0.03000000000000001	1	f	0	0.5540286223695148
0	62	n/a	n/a	n/a	f	8	0.02000000000000001	1	j	0	0.4613684979849495
0	63	n/a	n/a	n/a	j	8	0.03000000000000001	0	j	1	0.6245039613277186
0	64	n/a	n/a	n/a	j	8	0.04000000000000001	1	j	1	0.5722496599482838
0	65	n/a	n/a	n/a	j	8	0.03000000000000001	1	f	0	0.5351632583478931
0	66	n/a	n/a	n/a	j	8	0.02000000000000001	0	j	1	0.5622549029358197
0	67	n/a	n/a	n/a	j	8	0.03000000000000001	1	j	1	0.4532345898333006
0	68	n/a	n/a	n/a	f	8	0.02000000000000001	1	j	0	0.512105781264836
0	69	n/a	n/a	n/a	j	8	0.03000000000000001	1	f	0	0.5311858257337008
0	70	n/a	n/a	n/a	j	8	0.04000000000000001	0	j	1	0.4701535749190953
0	71	n/a	n/a	n/a	j	8	0.05000000000000002	0	j	1	0.5621596794517245
1	0	f	1	0.0005365585384424776	f	5	0.1	1	f	1	0.5940621045301668
1	1	n/a	n/a	n/a	j	5	0.09000000000000001	1	j	1	0.5159212769940495
1	2	n/a	n/a	n/a	f	5	0.08000000000000002	1	f	1	0.5428005219437182
1	3	n/a	n/a	n/a	f	5	0.07000000000000002	1	f	1	0.5458807443210389
1	4	n/a	n/a	n/a	f	5	0.06000000000000002	1	j	0	0.4948466717032716
1	5	n/a	n/a	n/a	j	5	0.05000000000000002	1	f	0	0.5777047667943407
1	6	n/a	n/a	n/a	f	5	0.06000000000000002	1	f	1	0.580783848738065
1	7	n/a	n/a	n/a	f	5	0.05000000000000002	1	f	1	0.503941937640775
1	8	n/a	n/a	n/a	f	5	0.04000000000000001	1	j	0	0.5638283708540257
1	9	n/a	n/a	n/a	j	5	0.05000000000000002	1	f	0	0.5107119265012443
1	10	n/a	n/a	n/a	f	5	0.04000000000000001	0	f	1	0.5047644516453147
1	11	n/a	n/a	n/a	f	5	0.05000000000000002	0	f	1	0.5396809557860252
1	12	n/a	n/a	n/a	f	5	0.06000000000000002	0	j	0	0.574596319522243
1	13	n/a	n/a	n/a	j	5	0.05000000000000002	0	f	0	0.5535365394316614
1	14	n/a	n/a	n/a	f	5	0.04000000000000001	1	f	1	0.5245107751979958
1	15	n/a	n/a	n/a	f	5	0.03000000000000001	1	j	0	0.5434867580770515
1	16	n/a	n/a	n/a	f	5	0.04000000000000001	1	j	0	0.553980440396117
1	17	n/a	n/a	n/a	j	5	0.05000000000000002	1	f	0	0.5090577752853278
1	18	n/a	n/a	n/a	f	5	0.04000000000000001	0	f	1	0.6085928053653333
1	19	n/a	n/a	n/a	f	5	0.05000000000000002	1	f	1	0.6363957749272231
1	20	n/a	n/a	n/a	f	5	0.04000000000000001	1	j	0	0.5354936894727871
1	21	n/a	n/a	n/a	j	5	0.05000000000000002	1	f	0	0.4739017869578674
1	22	n/a	n/a	n/a	f	5	0.04000000000000001	0	f	1	0.7252506672230083
1	23	n/a	n/a	n/a	f	5	0.05000000000000002	2	f	1	0.6163974227965809
1	24	n/a	n/a	n/a	f	5	0.06000000000000002	2	j	0	0.4429658515728079
1	25	n/a	n/a	n/a	j	5	0.05000000000000002	2	f	0	0.7101976628182456
1	26	n/a	n/a	n/a	f	5	0.06000000000000002	2	f	1	0.6331504795816727
1	27	n/a	n/a	n/a	f	5	0.07000000000000002	2	j	0	0.5971021277364343
1	28	n/a	n/a	n/a	f	5	0.06000000000000002	1	f	1	0.6002667397260666
1	29	n/a	n/a	n/a	j	5	0.05000000000000002	1	f	0	0.4437344816396944
1	30	n/a	n/a	n/a	f	5	0.04000000000000001	1	j	0	0.6149340035917703
1	31	n/a	n/a	n/a	f	5	0.05000000000000002	1	f	1	0.5860490788472816
1	32	n/a	n/a	n/a	f	5	0.04000000000000001	1	f	1	0.6537387039570604
1	33	n/a	n/a	n/a	j	5	0.03000000000000001	2	j	1	0.5609722372319084
1	34	n/a	n/a	n/a	f	5	0.04000000000000001	1	f	1	0.5958225981157739
1	35	n/a	n/a	n/a	f	5	0.03000000000000001	1	f	1	0.6948983318579849
1	36	n/a	n/a	n/a	f	5	0.02000000000000001	2	f	1	0.5781081835448276
1	37	n/a	n/a	n/a	j	5	0.03000000000000001	1	j	1	0.5497620981477667
1	38	n/a	n/a	n/a	f	5	0.02000000000000001	0	f	1	0.5528714007232338
1	39	n/a	n/a	n/a	f	5	0.03000000000000001	0	f	1	0.5636533193173818
1	40	n/a	n/a	n/a	f	5	0.04000000000000001	1	f	1	0.6223477486637421
1	41	n/a	n/a	n/a	j	5	0.03000000000000001	2	j	1	0.6016081360576209
1	42	n/a	n/a	n/a	f	5	0.04000000000000001	1	f	1	0.6370278420217801
1	43	n/a	n/a	n/a	f	5	0.03000000000000001	2	f	1	0.6086971520562656
1	44	n/a	n/a	n/a	f	5	0.04000000000000001	1	f	1	0.5964384145045187
1	45	n/a	n/a	n/a	j	5	0.03000000000000001	1	j	1	0.4794256029708777
1	46	n/a	n/a	n/a	f	5	0.02000000000000001	0	f	1	0.5223910553613678
1	47	n/a	n/a	n/a	f	5	0.03000000000000001	0	f	1	0.6285144655557815
1	48	n/a	n/a	n/a	f	5	0.04000000000000001	2	f	1	0.5834674967336468
1	49	n/a	n/a	n/a	j	5	0.05000000000000002	1	j	1	0.5393662051938009
1	50	n/a	n/a	n/a	f	5	0.04000000000000001	0	f	1	0.5822609527676832
1	51	n/a	n/a	n/a	f	5	0.05000000000000002	1	f	1	0.6422622813261114
1	52	n/a	n/a	n/a	f	5	0.04000000000000001	2	f	1	0.5891663642250933
1	53	n/a	n/a	n/a	j	5	0.05000000000000002	1	j	1	0.5363555472868029
1	54	n/a	n/a	n/a	f	5	0.04000000000000001	0	f	1	0.5627954528608825
1	55	n/a	n/a	n/a	f	5	0.05000000000000002	1	f	1	0.5498265307978727
1	56	n/a	n/a	n/a	f	5	0.04000000000000001	1	f	1	0.6407381357857957
1	57	n/a	n/a	n/a	j	5	0.03000000000000001	2	j	1	0.5810179159743711
1	58	n/a	n/a	n/a	f	5	0.04000000000000001	1	f	1	0.5522048364800867
1	59	n/a	n/a	n/a	f	5	0.03000000000000001	0	f	1	0.5790262061054818
1	60	n/a	n/a	n/a	f	5	0.04000000000000001	1	f	1	0.6139509781496599
1	61	n/a	n/a	n/a	j	5	0.03000000000000001	2	j	1	0.5370375069032889
1	62	n/a	n/a	n/a	f	5	0.04000000000000001	0	f	1	0.5238248241657857
1	63	n/a	n/a	n/a	f	5	0.05000000000000002	0	f	1	0.5517663524078671
1	64	n/a	n/a	n/a	f	5	0.06000000000000002	1	f	1	0.5790638393664267
1	65	n/a	n/a	n/a	j	5	0.05000000000000002	1	j	1	0.6157898743404076
1	66	n/a	n/a	n/a	f	5	0.04000000000000001	1	f	1	0.5627763511729427
1	67	n/a	n/a	n/a	f	5	0.03000000000000001	1	f	1	0.5818144858640153
1	68	n/a	n/a	n/a	f	5	0.02000000000000001	1	f	1	0.5200463914952707
1	69	n/a	n/a	n/a	j	5	0.01000000000000001	0	j	1	0.5545235562603921
1	70	n/a	n/a	n/a	f	5	0.02000000000000001	0	f	1	0.5415018906642217
1	71	n/a	n/a	n/a	f	5	0.03000000000000001	0	f	1	0.4883480981807224
2	0	f	1	4.375800240581157	f	1	0.1	2	f	1	0.3468953588162549
2	1	n/a	n/a	n/a	j	1	0.11	2	f	0	0.4049354832677636
2	2	n/a	n/a	n/a	f	1	0.1	2	j	0	0.3521976519841701
2	3	n/a	n/a	n/a	f	1	0.09000000000000001	1	f	1	0.5164914773777127
2	4	n/a	n/a	n/a	f	1	0.08000000000000002	2	f	1	0.343993894290179
2	5	n/a	n/a	n/a	j	1	0.09000000000000001	2	f	0	0.3949783594871406
2	6	n/a	n/a	n/a	f	1	0.08000000000000002	2	j	0	0.3655109750689007
2	7	n/a	n/a	n/a	f	1	0.07000000000000002	1	f	1	0.2579720425128471
2	8	n/a	n/a	n/a	f	1	0.06000000000000002	0	f	1	0.364586395182414
2	9	n/a	n/a	n/a	j	1	0.07000000000000002	1	j	1	0.551595007214928
2	10	n/a	n/a	n/a	f	1	0.06000000000000002	2	f	1	0.3943582665815484
2	11	n/a	n/a	n/a	f	1	0.07000000000000002	1	f	1	0.4476819787523709
2	12	n/a	n/a	n/a	f	1	0.06000000000000002	2	f	1	0.4277064346242696
2	13	n/a	n/a	n/a	j	1	0.07000000000000002	1	j	1	0.2867648798564915
2	14	n/a	n/a	n/a	f	1	0.06000000000000002	0	f	1	0.3724334925354924
2	15	n/a	n/a	n/a	f	1	0.07000000000000002	1	f	1	0.3358579904597718
2	16	n/a	n/a	n/a	f	1	0.06000000000000002	1	f	1	0.4346586025203578
2	17	n/a	n/a	n/a	j	1	0.05000000000000002	1	f	0	0.3495875598455314
2	18	n/a	n/a	n/a	f	1	0.04000000000000001	1	j	0	0.3444497694727033
2	19	n/a	n/a	n/a	f	1	0.03000000000000001	0	f	1	0.3556225604261272
2	20	n/a	n/a	n/a	f	1	0.04000000000000001	1	f	1	0.3105661832960322
2	21	n/a	n/a	n/a	j	1	0.03000000000000001	0	j	1	0.4101864583790302
2	22	n/a	n/a	n/a	f	1	0.04000000000000001	1	f	1	0.3495573391846847
2	23	n/a	n/a	n/a	f	1	0.03000000000000001	0	f	1	0.3682402390986681
2	24	n/a	n/a	n/a	f	1	0.04000000000000001	1	f	1	0.3792322765511926
2	25	n/a	n/a	n/a	j	1	0.03000000000000001	1	j	1	0.3344313491543289
2	26	n/a	n/a	n/a	f	1	0.02000000000000001	0	f	1	0.3614565654133912
2	27	n/a	n/a	n/a	f	1	0.03000000000000001	1	f	1	0.292305231676437
2	28	n/a	n/a	n/a	f	1	0.02000000000000001	0	f	1	0.4474872553255409
2	29	n/a	n/a	n/a	j	1	0.03000000000000001	2	j	1	0.3313896153413225
2	30	n/a	n/a	n/a	f	1	0.04000000000000001	0	f	1	0.3823469960188959
2	31	n/a	n/a	n/a	f	1	0.05000000000000002	1	f	1	0.2324510148027912
2	32	n/a	n/a	n/a	f	1	0.04000000000000001	0	f	1	0.4269192730425857
2	33	n/a	n/a	n/a	j	1	0.05000000000000002	1	j	1	0.4142847734619863
2	34	n/a	n/a	n/a	f	1	0.04000000000000001	1	f	1	0.3382702230883297
2	35	n/a	n/a	n/a	f	1	0.03000000000000001	0	f	1	0.2451867249328643
2	36	n/a	n/a	n/a	f	1	0.04000000000000001	0	f	1	0.4084094289573841
2	37	n/a	n/a	n/a	j	1	0.05000000000000002	1	j	1	0.355745438602753
2	38	n/a	n/a	n/a	f	1	0.04000000000000001	1	f	1	0.3830415000556968
2	39	n/a	n/a	n/a	f	1	0.03000000000000001	1	f	1	0.3800436716410331
2	40	n/a	n/a	n/a	f	1	0.02000000000000001	1	f	1	0.343213575106347
2	41	n/a	n/a	n/a	j	1	0.01000000000000001	0	j	1	0.3710573139833286
2	42	n/a	n/a	n/a	f	1	0.02000000000000001	1	f	1	0.3661361997656059
2	43	n/a	n/a	n/a	f	1	0.01000000000000001	0	f	1	0.3771424922160804
2	44	n/a	n/a	n/a	f	1	0.02000000000000001	1	f	1	0.403666502359556
2	45	n/a	n/a	n/a	j	1	0.01000000000000001	2	j	1	0.3827067924430594
2	46	n/a	n/a	n/a	f	1	0.02000000000000001	1	f	1	0.4030010785209015
2	47	n/a	n/a	n/a	f	1	0.01000000000000001	2	f	1	0.3429977542546112
2	48	n/a	n/a	n/a	f	1	0.02000000000000001	0	f	1	0.3550018973473925
2	49	n/a	n/a	n/a	j	1	0.03000000000000001	0	j	1	0.3815837828442454
2	50	n/a	n/a	n/a	f	1	0.04000000000000001	1	f	1	0.3629430777509697
2	51	n/a	n/a	n/a	f	1	0.03000000000000001	1	f	1	0.3578745667473413
2	52	n/a	n/a	n/a	f	1	0.02000000000000001	0	f	1	0.3770313031272963
2	53	n/a	n/a	n/a	j	1	0.03000000000000001	1	j	1	0.3558771549141966
2	54	n/a	n/a	n/a	f	1	0.02000000000000001	0	f	1	0.3358976193994749
2	55	n/a	n/a	n/a	f	1	0.03000000000000001	0	f	1	0.3945162120799068
2	56	n/a	n/a	n/a	f	1	0.04000000000000001	1	f	1	0.365861363185104
2	57	n/a	n/a	n/a	j	1	0.03000000000000001	1	j	1	0.377804209740134
2	58	n/a	n/a	n/a	f	1	0.02000000000000001	1	f	1	0.3969817584438715
2	59	n/a	n/a	n/a	f	1	0.01000000000000001	2	f	1	0.3758116445678752
2	60	n/a	n/a	n/a	f	1	0.02000000000000001	1	f	1	0.4026712176273577
2	61	n/a	n/a	n/a	j	1	0.01000000000000001	2	j	1	0.4457532760279719
2	62	n/a	n/a	n/a	f	1	0.02000000000000001	2	f	1	0.3527282234281301
2	63	n/a	n/a	n/a	f	1	0.03000000000000001	0	f	1	0.3794084684632253
2	64	n/a	n/a	n/a	f	1	0.04000000000000001	1	f	1	0.4221506874309853
2	65	n/a	n/a	n/a	j	1	0.03000000000000001	2	j	1	0.353241688804701
2	66	n/a	n/a	n/a	f	1	0.04000000000000001	1	f	1	0.3645878206880298
2	67	n/a	n/a	n/a	f	1	0.03000000000000001	1	f	1	0.2976813657733146
2	68	n/a	n/a	n/a	f	1	0.02000000000000001	0	f	1	0.4366622865782119
2	69	n/a	n/a	n/a	j	1	0.03000000000000001	2	j	1	0.3605271388369147
2	70	n/a	n/a	n/a	f	1	0.04000000000000001	1	f	1	0.3873661846446339
2	71	n/a	n/a	n/a	f	1	0.03000000000000001	1	f	1	0.3683588407875504
3	0	j	0	1.331170373305213	j	2	0.1	1	f	0	0.3574469164886978
3	1	n/a	n/a	n/a	f	2	0.09000000000000001	1	f	1	0.4155571755545679
3	2	n/a	n/a	n/a	j	2	0.08000000000000002	1	j	1	0.3784128986299038
3	3	n/a	n/a	n/a	j	2	0.07000000000000002	1	f	0	0.349094051431166
3	4	n/a	n/a	n/a	j	2	0.06000000000000002	1	f	0	0.4404603911680169
3	5	n/a	n/a	n/a	f	2	0.05000000000000002	2	f	1	0.4193524291622452
3	6	n/a	n/a	n/a	j	2	0.06000000000000002	1	j	1	0.4380398906359915
3	7	n/a	n/a	n/a	j	2	0.05000000000000002	2	j	1	0.4412592418666463
3	8	n/a	n/a	n/a	j	2	0.06000000000000002	1	j	1	0.3892358716402669
3	9	n/a	n/a	n/a	f	2	0.05000000000000002	1	f	1	0.3954037289367989
3	10	n/a	n/a	n/a	j	2	0.04000000000000001	1	j	1	0.4062820113904309
3	11	n/a	n/a	n/a	j	2	0.03000000000000001	1	j	1	0.4331700944749173
3	12	n/a	n/a	n/a	j	2	0.02000000000000001	2	j	1	0.381234535103431
3	13	n/a	n/a	n/a	f	2	0.03000000000000001	1	f	1	0.3291042522760108
3	14	n/a	n/a	n/a	j	2	0.02000000000000001	0	j	1	0.4119723258772865
3	15	n/a	n/a	n/a	j	2	0.03000000000000001	1	j	1	0.4149279594421387
3	16	n/a	n/a	n/a	j	2	0.02000000000000001	2	j	1	0.3949099354213104
3	17	n/a	n/a	n/a	f	2	0.03000000000000001	1	f	1	0.3660158874990884
3	18	n/a	n/a	n/a	j	2	0.02000000000000001	1	j	1	0.393182798550697
3	19	n/a	n/a	n/a	j	2	0.01000000000000001	1	j	1	0.4196566310420167
3	20	n/a	n/a	n/a	j	2	1.040834085586084e-17	2	j	1	0.3669843727839179
3	21	n/a	n/a	n/a	f	2	0.01000000000000001	0	f	1	0.3939711005368736
3	22	n/a	n/a	n/a	j	2	0.02000000000000001	1	j	1	0.4047552999400068
3	23	n/a	n/a	n/a	j	2	0.01000000000000001	2	j	1	0.4080470666231122
3	24	n/a	n/a	n/a	j	2	0.02000000000000001	2	j	1	0.3789417594671249
3	25	n/a	n/a	n/a	f	2	0.03000000000000001	1	f	1	0.3508739318349399
3	26	n/a	n/a	n/a	j	2	0.02000000000000001	0	j	1	0.4101032091130037
3	27	n/a	n/a	n/a	j	2	0.03000000000000001	1	j	1	0.3816995334927924
3	28	n/a	n/a	n/a	j	2	0.02000000000000001	1	j	1	0.3526361360272858
3	29	n/a	n/a	n/a	f	2	0.01000000000000001	0	f	1	0.3399756923317909
3	30	n/a	n/a	n/a	j	2	0.02000000000000001	0	j	1	0.4543430593330413
3	31	n/a	n/a	n/a	j	2	0.03000000000000001	2	j	1	0.4257928422011901
3	32	n/a	n/a	n/a	j	2	0.04000000000000001	1	j	1	0.3968072771094739
3	33	n/a	n/a	n/a	f	2	0.03000000000000001	1	f	1	0.3434271151199937
3	34	n/a	n/a	n/a	j	2	0.02000000000000001	0	j	1	0.4015955346403643
3	35	n/a	n/a	n/a	j	2	0.03000000000000001	1	j	1	0.364215194771532
3	36	n/a	n/a	n/a	j	2	0.02000000000000001	1	j	1	0.4235300020955037
3	37	n/a	n/a	n/a	f	2	0.01000000000000001	2	f	1	0.3625430822139606
3	38	n/a	n/a	n/a	j	2	0.02000000000000001	0	j	1	0.4156056425708812
3	39	n/a	n/a	n/a	j	2	0.03000000000000001	2	j	1	0.4184526529861614
3	40	n/a	n/a	n/a	j	2	0.04000000000000001	1	j	1	0.3734535809780937
3	41	n/a	n/a	n/a	f	2	0.03000000000000001	1	f	1	0.392666767234914
3	42	n/a	n/a	n/a	j	2	0.02000000000000001	1	j	1	0.4115059019823093
3	43	n/a	n/a	n/a	j	2	0.01000000000000001	2	j	1	0.3585317226534244
3	44	n/a	n/a	n/a	j	2	0.02000000000000001	0	j	1	0.3854793916689232
3	45	n/a	n/a	n/a	f	2	0.03000000000000001	1	f	1	0.3964118431613315
3	46	n/a	n/a	n/a	j	2	0.02000000000000001	1	j	1	0.3845034937548917
3	47	n/a	n/a	n/a	j	2	0.01000000000000001	1	j	1	0.3313140637765173
3	48	n/a	n/a	n/a	j	2	1.040834085586084e-17	0	j	1	0.4143529123975895
3	49	n/a	n/a	n/a	f	2	0.01000000000000001	2	f	1	0.3553023929416668
3	50	n/a	n/a	n/a	j	2	0.02000000000000001	0	j	1	0.4143369467637967
3	51	n/a	n/a	n/a	j	2	0.03000000000000001	2	j	1	0.3770851870940533
3	52	n/a	n/a	n/a	j	2	0.04000000000000001	1	j	1	0.2834121017658617
3	53	n/a	n/a	n/a	f	2	0.03000000000000001	0	f	1	0.4703009717050008
3	54	n/a	n/a	n/a	j	2	0.04000000000000001	2	j	1	0.4253383925242815
3	55	n/a	n/a	n/a	j	2	0.05000000000000002	1	j	1	0.3718054168566596
3	56	n/a	n/a	n/a	j	2	0.04000000000000001	1	j	1	0.4002538531785831
3	57	n/a	n/a	n/a	f	2	0.03000000000000001	1	f	1	0.3951115012459923
3	58	n/a	n/a	n/a	j	2	0.02000000000000001	1	j	1	0.4136735186912119
3	59	n/a	n/a	n/a	j	2	0.01000000000000001	2	j	1	0.3780465448799077
3	60	n/a	n/a	n/a	j	2	0.02000000000000001	1	j	1	0.3980095445876941
3	61	n/a	n/a	n/a	f	2	0.01000000000000001	2	f	1	0.3931138042826205
3	62	n/a	n/a	n/a	j	2	0.02000000000000001	1	j	1	0.4195023918582592
3	63	n/a	n/a	n/a	j	2	0.01000000000000001	2	j	1	0.3749540632416029
3	64	n/a	n/a	n/a	j	2	0.02000000000000001	1	j	1	0.3946088696247898
3	65	n/a	n/a	n/a	f	2	0.01000000000000001	1	f	1	0.389943490299629
3	66	n/a	n/a	n/a	j	2	1.040834085586084e-17	2	j	1	0.4331153552338947
3	67	n/a	n/a	n/a	j	2	0.01000000000000001	2	j	1	0.3718330715491902
3	68	n/a	n/a	n/a	j	2	0.02000000000000001	1	j	1	0.415939494909253
3	69	n/a	n/a	n/a	f	2	0.01000000000000001	2	f	1	0.3948472134070471
3	70	n/a	n/a	n/a	j	2	0.02000000000000001	1	j	1	0.4137944011308718
3	71	n/a	n/a	n/a	j	2	0.01000000000000001	2	j	1	0.3688090139767155
4	0	j	1	0.6987739836913534	j	6	0.1	0	j	1	0.4837996099377051
4	1	n/a	n/a	n/a	f	6	0.11	0	j	0	1.437559211743064
4	2	n/a	n/a	n/a	j	6	0.1	0	f	0	0.480722523672739
4	3	n/a	n/a	n/a	j	6	0.11	1	j	1	0.4355957267980557
4	4	n/a	n/a	n/a	j	6	0.1	0	j	1	0.4457487144100014
4	5	n/a	n/a	n/a	f	6	0.11	0	j	0	0.4336299610731658
4	6	n/a	n/a	n/a	j	6	0.12	0	j	1	0.4923643044312485
4	7	n/a	n/a	n/a	j	6	0.13	1	j	1	0.4726265338540543
4	8	n/a	n/a	n/a	j	6	0.12	1	j	1	0.5552040903712623
4	9	n/a	n/a	n/a	f	6	0.11	1	f	1	0.422310628608102
4	10	n/a	n/a	n/a	j	6	0.1	0	j	1	0.4413099897210486
4	11	n/a	n/a	n/a	j	6	0.11	0	j	1	0.4598862621351145
4	12	n/a	n/a	n/a	j	6	0.12	0	j	1	0.4631124557927251
4	13	n/a	n/a	n/a	f	6	0.13	1	f	1	0.4583050965156872
4	14	n/a	n/a	n/a	j	6	0.12	0	j	1	0.4873188865312841
4	15	n/a	n/a	n/a	j	6	0.13	1	j	1	0.4582714546995703
4	16	n/a	n/a	n/a	j	6	0.12	0	j	1	0.4606794108403847
4	17	n/a	n/a	n/a	f	6	0.13	1	f	1	0.4643403822556138
4	18	n/a	n/a	n/a	j	6	0.12	0	j	1	0.4671973711519968
4	19	n/a	n/a	n/a	j	6	0.13	1	j	1	0.4546287296980154
4	20	n/a	n/a	n/a	j	6	0.12	0	j	1	0.5140279266925063
4	21	n/a	n/a	n/a	f	6	0.13	1	f	1	0.4690627816307824
4	22	n/a	n/a	n/a	j	6	0.12	1	j	1	0.4971964673604816
4	23	n/a	n/a	n/a	j	6	0.11	1	j	1	0.4359298642375506
4	24	n/a	n/a	n/a	j	6	0.1	0	j	1	0.5429319531249348
4	25	n/a	n/a	n/a	f	6	0.11	1	f	1	0.4339424308564048
4	26	n/a	n/a	n/a	j	6	0.1	0	j	1	0.4688187358842697
4	27	n/a	n/a	n/a	j	6	0.11	0	j	1	0.4961242055869661
4	28	n/a	n/a	n/a	j	6	0.12	1	j	1	0.4998139721283223
4	29	n/a	n/a	n/a	f	6	0.11	1	f	1	0.4788588238297962
4	30	n/a	n/a	n/a	j	6	0.1	0	j	1	0.5070826012233738
4	31	n/a	n/a	n/a	j	6	0.11	1	j	1	0.47073489415925
4	32	n/a	n/a	n/a	j	6	0.1	0	j	1	0.4903520673396997
4	33	n/a	n/a	n/a	f	6	0.11	1	f	1	0.4937704185140319
4	34	n/a	n/a	n/a	j	6	0.1	1	j	1	0.4421764091530349
4	35	n/a	n/a	n/a	j	6	0.09000000000000002	0	j	1	0.5103415813937318
4	36	n/a	n/a	n/a	j	6	0.1	1	j	1	0.473724454670446
4	37	n/a	n/a	n/a	f	6	0.09000000000000002	0	f	1	0.4217851889843587
4	38	n/a	n/a	n/a	j	6	0.1	0	j	1	0.4246783856069669
4	39	n/a	n/a	n/a	j	6	0.11	0	j	1	0.4676235959341284
4	40	n/a	n/a	n/a	j	6	0.12	0	j	1	0.4547022855549585
4	41	n/a	n/a	n/a	f	6	0.13	1	f	1	0.3597308540192898
4	42	n/a	n/a	n/a	j	6	0.12	0	j	1	0.4903184255526867
4	43	n/a	n/a	n/a	j	6	0.13	1	j	1	0.460033373819897
4	44	n/a	n/a	n/a	j	6	0.12	0	j	1	0.4394009588868357
4	45	n/a	n/a	n/a	f	6	0.13	0	f	1	0.4580573444836773
4	46	n/a	n/a	n/a	j	6	0.14	1	j	1	0.5034244808193762
4	47	n/a	n/a	n/a	j	6	0.13	1	j	1	0.4836211372166872
4	48	n/a	n/a	n/a	j	6	0.12	1	j	1	0.463247878360562
4	49	n/a	n/a	n/a	f	6	0.11	0	f	1	0.4742544559121598
4	50	n/a	n/a	n/a	j	6	0.12	1	j	1	0.4612293690734077
4	51	n/a	n/a	n/a	j	6	0.11	0	j	1	0.4884016970463563
4	52	n/a	n/a	n/a	j	6	0.12	1	j	1	0.4669059987645596
4	53	n/a	n/a	n/a	f	6	0.11	0	f	1	0.4776785090507474
4	54	n/a	n/a	n/a	j	6	0.12	1	j	1	0.4970408026711084
4	55	n/a	n/a	n/a	j	6	0.11	1	j	1	0.5250025730347261
4	56	n/a	n/a	n/a	j	6	0.1	1	j	1	0.4801862502645236
4	57	n/a	n/a	n/a	f	6	0.09000000000000002	0	f	1	0.4666057882714085
4	58	n/a	n/a	n/a	j	6	0.1	0	j	1	0.4950393994222395
4	59	n/a	n/a	n/a	j	6	0.11	1	j	1	0.4250076763273682
4	60	n/a	n/a	n/a	j	6	0.1	0	j	1	0.4838420898595359
4	61	n/a	n/a	n/a	f	6	0.11	1	f	1	0.4549132596876007
4	62	n/a	n/a	n/a	j	6	0.1	0	j	1	0.4018777838209644
4	63	n/a	n/a	n/a	j	6	0.11	0	j	1	0.4961002571799327
4	64	n/a	n/a	n/a	j	6	0.12	1	j	1	0.4435810977593064
4	65	n/a	n/a	n/a	f	6	0.11	0	f	1	0.4325363167736214
4	66	n/a	n/a	n/a	j	6	0.12	0	j	1	0.4912629624304827
4	67	n/a	n/a	n/a	j	6	0.13	1	j	1	0.4465578287199605
4	68	n/a	n/a	n/a	j	6	0.12	0	j	1	0.450001553806942
4	69	n/a	n/a	n/a	f	6	0.13	0	f	1	0.4046184518665541
4	70	n/a	n/a	n/a	j	6	0.14	0	j	1	0.4559689856541809
4	71	n/a	n/a	n/a	j	6	0.15	1	j	1	0.4446068881952669
5	0	f	1	0.7302715664554853	f	7	0.1	0	f	1	0.4996728475380223
5	1	n/a	n/a	n/a	f	7	0.11	1	f	1	0.5662046808283776
5	2	n/a	n/a	n/a	j	7	0.1	1	f	0	0.5680695211049169
5	3	n/a	n/a	n/a	f	7	0.09000000000000001	1	j	0	0.6352300003054552
5	4	n/a	n/a	n/a	f	7	0.08000000000000002	1	f	1	0.7903666929923929
5	5	n/a	n/a	n/a	f	7	0.07000000000000002	2	f	1	0.561355411860859
5	6	n/a	n/a	n/a	f	7	0.08000000000000002	1	f	1	0.5402910701814108
5	7	n/a	n/a	n/a	f	7	0.07000000000000002	1	f	1	0.5273358329141047
5	8	n/a	n/a	n/a	j	7	0.06000000000000002	1	f	0	0.4674077750823926
5	9	n/a	n/a	n/a	f	7	0.05000000000000002	1	j	0	0.4703520046314225
5	10	n/a	n/a	n/a	f	7	0.06000000000000002	0	f	1	0.3940552050771657
5	11	n/a	n/a	n/a	f	7	0.07000000000000002	0	f	1	0.7251953577506356
5	12	n/a	n/a	n/a	f	7	0.08000000000000002	2	f	1	0.4883298517961521
5	13	n/a	n/a	n/a	f	7	0.09000000000000001	0	f	1	0.4988266701984685
5	14	n/a	n/a	n/a	j	7	0.1	0	f	0	0.4701333328266628
5	15	n/a	n/a	n/a	f	7	0.09000000000000001	0	f	1	0.4652116484066937
5	16	n/a	n/a	n/a	f	7	0.1	0	f	1	0.4600367950333748
5	17	n/a	n/a	n/a	f	7	0.11	0	f	1	0.5430887582479045
5	18	n/a	n/a	n/a	f	7	0.12	1	f	1	0.4909724453755189
5	19	n/a	n/a	n/a	f	7	0.11	1	f	1	0.5287849971209653
5	20	n/a	n/a	n/a	j	7	0.1	1	f	0	0.4686753304849844
5	21	n/a	n/a	n/a	f	7	0.09000000000000001	0	f	1	0.4906599755340721
5	22	n/a	n/a	n/a	f	7	0.1	1	f	1	0.5268360522750299
5	23	n/a	n/a	n/a	f	7	0.09000000000000001	1	f	1	0.4658571151958313
5	24	n/a	n/a	n/a	f	7	0.08000000000000002	0	f	1	0.5013415389112197
5	25	n/a	n/a	n/a	f	7	0.09000000000000001	1	f	1	0.505063521763077
5	26	n/a	n/a	n/a	j	7	0.08000000000000002	0	j	1	0.4917353734199423
5	27	n/a	n/a	n/a	f	7	0.09000000000000001	0	f	1	0.470324635040015
5	28	n/a	n/a	n/a	f	7	0.1	0	f	1	0.5377724952122662
5	29	n/a	n/a	n/a	f	7	0.11	1	f	1	0.5025187175197061
5	30	n/a	n/a	n/a	f	7	0.1	1	f	1	0.5317682853783481
5	31	n/a	n/a	n/a	f	7	0.09000000000000001	1	f	1	0.4626152410637587
5	32	n/a	n/a	n/a	j	7	0.08000000000000002	1	f	0	0.4416264509200118
5	33	n/a	n/a	n/a	f	7	0.09000000000000001	0	f	1	0.5165048770722933
5	34	n/a	n/a	n/a	f	7	0.1	1	f	1	0.4636746733449399
5	35	n/a	n/a	n/a	f	7	0.09000000000000001	0	f	1	0.49850792819052
5	36	n/a	n/a	n/a	f	7	0.1	0	j	0	0.5173379397892859
5	37	n/a	n/a	n/a	f	7	0.09000000000000001	1	f	1	0.5138257906655781
5	38	n/a	n/a	n/a	j	7	0.08000000000000002	1	f	0	0.5161102984275203
5	39	n/a	n/a	n/a	f	7	0.07000000000000002	0	f	1	0.5584174545074347
5	40	n/a	n/a	n/a	f	7	0.08000000000000002	1	f	1	0.4923078546125907
5	41	n/a	n/a	n/a	f	7	0.07000000000000002	0	f	1	0.512120321393013
5	42	n/a	n/a	n/a	f	7	0.08000000000000002	1	f	1	0.5792505799618084
5	43	n/a	n/a	n/a	f	7	0.07000000000000002	1	f	1	0.5432467037462629
5	44	n/a	n/a	n/a	j	7	0.06000000000000002	1	f	0	0.4339276056271046
5	45	n/a	n/a	n/a	f	7	0.05000000000000002	0	f	1	0.5250869626761414
5	46	n/a	n/a	n/a	f	7	0.06000000000000002	1	f	1	0.4802301556919701
5	47	n/a	n/a	n/a	f	7	0.05000000000000002	0	f	1	0.4912110742006917
5	48	n/a	n/a	n/a	f	7	0.06000000000000002	0	f	1	0.5340562143537682
5	49	n/a	n/a	n/a	f	7	0.07000000000000002	1	f	1	0.5048451350012328
5	50	n/a	n/a	n/a	j	7	0.06000000000000002	1	f	0	0.5009743298578542
5	51	n/a	n/a	n/a	f	7	0.07000000000000002	0	f	1	0.4972819974354934
5	52	n/a	n/a	n/a	f	7	0.08000000000000002	0	f	1	0.5079433186620008
5	53	n/a	n/a	n/a	f	7	0.09000000000000001	1	f	1	0.5281127308844589
5	54	n/a	n/a	n/a	f	7	0.08000000000000002	1	f	1	0.4918240396073088
5	55	n/a	n/a	n/a	f	7	0.07000000000000002	0	f	1	0.5119897455151659
5	56	n/a	n/a	n/a	j	7	0.08000000000000002	1	j	1	0.4829058208561037
5	57	n/a	n/a	n/a	f	7	0.07000000000000002	0	f	1	0.4858674415154383
5	58	n/a	n/a	n/a	f	7	0.08000000000000002	0	f	1	0.5609748031129129
5	59	n/a	n/a	n/a	f	7	0.09000000000000001	1	f	1	0.4360598699131515
5	60	n/a	n/a	n/a	f	7	0.08000000000000002	0	f	1	0.5584231565298978
5	61	n/a	n/a	n/a	f	7	0.09000000000000001	1	f	1	0.4820545117254369
5	62	n/a	n/a	n/a	j	7	0.08000000000000002	0	j	1	0.6366686157998629
5	63	n/a	n/a	n/a	f	7	0.09000000000000001	1	f	1	0.4957384650770109
5	64	n/a	n/a	n/a	f	7	0.08000000000000002	0	f	1	0.4826195802888833
5	65	n/a	n/a	n/a	f	7	0.09000000000000001	0	f	1	0.5102152820036281
5	66	n/a	n/a	n/a	f	7	0.1	1	f	1	0.6095644267916214
5	67	n/a	n/a	n/a	f	7	0.09000000000000001	1	f	1	0.5005777555052191
5	68	n/a	n/a	n/a	j	7	0.08000000000000002	0	j	1	0.6246810085431207
5	69	n/a	n/a	n/a	f	7	0.09000000000000001	1	f	1	0.4834192862908822
5	70	n/a	n/a	n/a	f	7	0.08000000000000002	0	f	1	0.5739477166207507
5	71	n/a	n/a	n/a	f	7	0.09000000000000001	1	f	1	0.4650719493220095
6	0	j	1	1.204386893485207	j	12	0.1	0	j	1	0.7537846336199436
6	1	n/a	n/a	n/a	j	12	0.11	0	j	1	0.7077152955462225
6	2	n/a	n/a	n/a	f	12	0.12	0	j	0	0.6796374894038308
6	3	n/a	n/a	n/a	j	12	0.13	0	j	1	0.6777455646370072
6	4	n/a	n/a	n/a	j	12	0.14	0	j	1	0.625804588344181
6	5	n/a	n/a	n/a	j	12	0.15	0	j	1	0.588503221195424
6	6	n/a	n/a	n/a	j	12	0.16	0	j	1	0.648681026767008
6	7	n/a	n/a	n/a	j	12	0.17	0	j	1	0.6274926665064413
6	8	n/a	n/a	n/a	f	12	0.18	0	f	1	0.5354207038180903
6	9	n/a	n/a	n/a	j	12	0.1900000000000001	0	j	1	0.5864599081978668
6	10	n/a	n/a	n/a	j	12	0.2000000000000001	0	j	1	0.5814387238642666
6	11	n/a	n/a	n/a	j	12	0.2100000000000001	0	f	0	0.6484327045327518
6	12	n/a	n/a	n/a	j	12	0.2200000000000001	0	j	1	0.6041056136600673
6	13	n/a	n/a	n/a	j	12	0.2300000000000001	0	j	1	0.6470368540612981
6	14	n/a	n/a	n/a	f	12	0.2400000000000001	0	f	1	0.6578187726554461
6	15	n/a	n/a	n/a	j	12	0.2500000000000001	0	j	1	0.5970975661475677
6	16	n/a	n/a	n/a	j	12	0.2600000000000001	0	j	1	0.6083342195197474
6	17	n/a	n/a	n/a	j	12	0.2700000000000001	0	j	1	0.6110651941562537
6	18	n/a	n/a	n/a	j	12	0.2800000000000001	0	j	1	0.6381876295781694
6	19	n/a	n/a	n/a	j	12	0.2900000000000001	0	j	1	0.6007445676077623
6	20	n/a	n/a	n/a	f	12	0.3000000000000002	0	f	1	0.5969122509995941
6	21	n/a	n/a	n/a	j	12	0.3100000000000002	0	j	1	0.5851105290348642
6	22	n/a	n/a	n/a	j	12	0.3200000000000002	0	j	1	0.6439232749689836
6	23	n/a	n/a	n/a	j	12	0.3300000000000002	0	j	1	0.5437997980916407
6	24	n/a	n/a	n/a	j	12	0.3400000000000002	0	j	1	0.6348587998654693
6	25	n/a	n/a	n/a	j	12	0.3500000000000002	0	j	1	0.542923685250571
6	26	n/a	n/a	n/a	f	12	0.3600000000000002	0	f	1	0.569749901565956
6	27	n/a	n/a	n/a	j	12	0.3700000000000002	0	j	1	0.5806549834378529
6	28	n/a	n/a	n/a	j	12	0.3800000000000002	0	j	1	0.5610098704637494
6	29	n/a	n/a	n/a	j	12	0.3900000000000002	0	j	1	0.5636444812116679
6	30	n/a	n/a	n/a	j	12	0.4000000000000002	0	j	1	0.5906845226709265
6	31	n/a	n/a	n/a	j	12	0.4100000000000003	1	j	1	0.6012791304674465
6	32	n/a	n/a	n/a	f	12	0.4000000000000002	1	f	1	0.5405670471664052
6	33	n/a	n/a	n/a	j	12	0.3900000000000002	0	j	1	0.592703317059204
6	34	n/a	n/a	n/a	j	12	0.4000000000000002	1	j	1	0.6195728685997892
6	35	n/a	n/a	n/a	j	12	0.3900000000000002	1	f	0	0.5904048394004349
6	36	n/a	n/a	n/a	j	12	0.3800000000000002	0	j	1	0.6166004141559824
6	37	n/a	n/a	n/a	j	12	0.3900000000000002	1	j	1	0.52338092320133
6	38	n/a	n/a	n/a	f	12	0.3800000000000002	1	j	0	0.6703666017565411
6	39	n/a	n/a	n/a	j	12	0.3900000000000002	1	j	1	0.6103798133262899
6	40	n/a	n/a	n/a	j	12	0.3800000000000002	1	j	1	0.5489062273991294
6	41	n/a	n/a	n/a	j	12	0.3700000000000002	0	j	1	0.6559507962665521
6	42	n/a	n/a	n/a	j	12	0.3800000000000002	1	j	1	0.5697852539888117
6	43	n/a	n/a	n/a	j	12	0.3700000000000002	0	j	1	0.5651606439787429
6	44	n/a	n/a	n/a	f	12	0.3800000000000002	0	f	1	0.5682998820266221
6	45	n/a	n/a	n/a	j	12	0.3900000000000002	0	j	1	0.5951363619824406
6	46	n/a	n/a	n/a	j	12	0.4000000000000002	1	j	1	0.5657952769543044
6	47	n/a	n/a	n/a	j	12	0.3900000000000002	1	f	0	0.6576040922373068
6	48	n/a	n/a	n/a	j	12	0.4000000000000002	1	j	1	0.6000295363774057
6	49	n/a	n/a	n/a	j	12	0.3900000000000002	1	j	1	0.6986836069554556
6	50	n/a	n/a	n/a	f	12	0.3800000000000002	1	j	0	0.6549959957774263
6	51	n/a	n/a	n/a	j	12	0.3700000000000002	1	j	1	0.6828391644230578
6	52	n/a	n/a	n/a	j	12	0.3600000000000002	1	j	1	0.5817777079355437
6	53	n/a	n/a	n/a	j	12	0.3500000000000002	0	j	1	0.5127515332133044
6	54	n/a	n/a	n/a	j	12	0.3600000000000002	0	j	1	0.5958174662955571
6	55	n/a	n/a	n/a	j	12	0.3700000000000002	0	j	1	0.5449382031220011
6	56	n/a	n/a	n/a	f	12	0.3800000000000002	0	f	1	0.6197259674081579
6	57	n/a	n/a	n/a	j	12	0.3900000000000002	1	j	1	0.5515419785806444
6	58	n/a	n/a	n/a	j	12	0.3800000000000002	0	j	1	0.594637151574716
6	59	n/a	n/a	n/a	j	12	0.3900000000000002	0	f	0	0.5096607621526346
6	60	n/a	n/a	n/a	j	12	0.4000000000000002	0	j	1	0.6496620565012563
6	61	n/a	n/a	n/a	j	12	0.4100000000000003	1	j	1	0.6126677422435023
6	62	n/a	n/a	n/a	f	12	0.4000000000000002	1	j	0	0.5912082517170347
6	63	n/a	n/a	n/a	j	12	0.3900000000000002	0	j	1	0.6262023030722048
6	64	n/a	n/a	n/a	j	12	0.4000000000000002	1	j	1	0.5173815601447131
6	65	n/a	n/a	n/a	j	12	0.3900000000000002	0	j	1	0.5615005278377794
6	66	n/a	n/a	n/a	j	12	0.4000000000000002	0	j	1	0.5964680649340153
6	67	n/a	n/a	n/a	j	12	0.4100000000000003	1	j	1	0.5193002843298018
6	68	n/a	n/a	n/a	f	12	0.4000000000000002	0	f	1	0.4884533001750242
6	69	n/a	n/a	n/a	j	12	0.4100000000000003	0	j	1	0.5869308937108144
6	70	n/a	n/a	n/a	j	12	0.4200000000000003	1	j	1	0.5671660386433359
6	71	n/a	n/a	n/a	j	12	0.4100000000000003	0	j	1	0.8178212701459415
7	0	j	1	0.7140664722537622	j	4	0.1	2	j	1	0.3523125473293476
7	1	n/a	n/a	n/a	j	4	0.11	1	j	1	0.3859928571037017
7	2	n/a	n/a	n/a	f	4	0.1	1	f	1	0.4293397735455073
7	3	n/a	n/a	n/a	j	4	0.09000000000000001	1	j	1	0.07427800516597927
7	4	n/a	n/a	n/a	j	4	0.08000000000000002	0	j	1	0.5354514946229756
7	5	n/a	n/a	n/a	j	4	0.09000000000000001	2	j	1	0.4338206930842716
7	6	n/a	n/a	n/a	j	4	0.1	1	j	1	0.5567365038441494
7	7	n/a	n/a	n/a	j	4	0.09000000000000001	2	j	1	0.3762866214674432
7	8	n/a	n/a	n/a	f	4	0.1	1	f	1	0.3551461580209434
7	9	n/a	n/a	n/a	j	4	0.09000000000000001	1	j	1	0.3901308011263609
7	10	n/a	n/a	n/a	j	4	0.08000000000000002	1	j	1	0.3844912344356999
7	11	n/a	n/a	n/a	j	4	0.07000000000000002	1	j	1	0.3711573841283098
7	12	n/a	n/a	n/a	j	4	0.06000000000000002	1	j	1	0.4380775238678325
7	13	n/a	n/a	n/a	j	4	0.05000000000000002	2	j	1	0.3772610939049628
7	14	n/a	n/a	n/a	f	4	0.06000000000000002	1	f	1	0.3715736304002348
7	15	n/a	n/a	n/a	j	4	0.05000000000000002	1	j	1	0.3900903168832883
7	16	n/a	n/a	n/a	j	4	0.04000000000000001	1	j	1	0.3847064850851893
7	17	n/a	n/a	n/a	j	4	0.03000000000000001	1	j	1	0.3955152030976024
7	18	n/a	n/a	n/a	j	4	0.02000000000000001	1	j	1	0.3989854425017256
7	19	n/a	n/a	n/a	j	4	0.01000000000000001	2	j	1	0.4259849997470155
7	20	n/a	n/a	n/a	f	4	0.02000000000000001	2	f	1	0.3188757131283637
7	21	n/a	n/a	n/a	j	4	0.03000000000000001	0	j	1	0.3938513584726024
7	22	n/a	n/a	n/a	j	4	0.04000000000000001	1	j	1	0.3648084882297553
7	23	n/a	n/a	n/a	j	4	0.03000000000000001	1	j	1	0.3999339707952458
7	24	n/a	n/a	n/a	j	4	0.02000000000000001	1	j	1	0.3878160727326758
7	25	n/a	n/a	n/a	j	4	0.01000000000000001	1	j	1	0.4159987957391422
7	26	n/a	n/a	n/a	f	4	1.040834085586084e-17	1	j	0	0.2838483050290961
7	27	n/a	n/a	n/a	j	4	0.01000000000000001	0	j	1	0.5343532887345646
7	28	n/a	n/a	n/a	j	4	0.02000000000000001	2	j	1	0.3533123936795164
7	29	n/a	n/a	n/a	j	4	0.03000000000000001	0	j	1	0.4135244112694636
7	30	n/a	n/a	n/a	j	4	0.04000000000000001	1	j	1	0.4340131357021164
7	31	n/a	n/a	n/a	j	4	0.03000000000000001	2	j	1	0.3245725849410519
7	32	n/a	n/a	n/a	f	4	0.04000000000000001	0	f	1	0.4073169250623323
7	33	n/a	n/a	n/a	j	4	0.05000000000000002	1	j	1	0.4106602948741056
7	34	n/a	n/a	n/a	j	4	0.04000000000000001	1	j	1	0.3507570407527965
7	35	n/a	n/a	n/a	j	4	0.03000000000000001	0	j	1	0.39457009601756
7	36	n/a	n/a	n/a	j	4	0.04000000000000001	1	j	1	0.4385154377378058
7	37	n/a	n/a	n/a	j	4	0.03000000000000001	2	j	1	0.4665034373174421
7	38	n/a	n/a	n/a	f	4	0.04000000000000001	2	f	1	0.4059994771378115
7	39	n/a	n/a	n/a	j	4	0.05000000000000002	1	j	1	0.4021680158330128
7	40	n/a	n/a	n/a	j	4	0.04000000000000001	1	j	1	0.4213869040249847
7	41	n/a	n/a	n/a	j	4	0.03000000000000001	2	j	1	0.3765603176434524
7	42	n/a	n/a	n/a	j	4	0.04000000000000001	1	j	1	0.4354280878906138
7	43	n/a	n/a	n/a	j	4	0.03000000000000001	2	j	1	0.3113752976059914
7	44	n/a	n/a	n/a	f	4	0.04000000000000001	2	j	0	0.579339246120071
7	45	n/a	n/a	n/a	j	4	0.05000000000000002	2	j	1	0.7417659504280891
7	46	n/a	n/a	n/a	j	4	0.06000000000000002	2	j	1	0.4412586716644
7	47	n/a	n/a	n/a	j	4	0.07000000000000002	1	j	1	0.3883406570821535
7	48	n/a	n/a	n/a	j	4	0.06000000000000002	1	j	1	0.4151147000666242
7	49	n/a	n/a	n/a	j	4	0.05000000000000002	1	j	1	0.3869168667879421
7	50	n/a	n/a	n/a	f	4	0.04000000000000001	1	f	1	0.5261734794767108
7	51	n/a	n/a	n/a	j	4	0.03000000000000001	2	j	1	0.4493535210785922
7	52	n/a	n/a	n/a	j	4	0.04000000000000001	2	j	1	0.4040311455028132
7	53	n/a	n/a	n/a	j	4	0.05000000000000002	1	j	1	0.3748502867529169
7	54	n/a	n/a	n/a	j	4	0.04000000000000001	1	j	1	0.3937797982944176
7	55	n/a	n/a	n/a	j	4	0.03000000000000001	1	j	1	0.453962450614199
7	56	n/a	n/a	n/a	f	4	0.02000000000000001	1	j	0	0.4257771617267281
7	57	n/a	n/a	n/a	j	4	0.03000000000000001	2	j	1	0.4850415062974207
7	58	n/a	n/a	n/a	j	4	0.04000000000000001	2	j	1	0.4149339465657249
7	59	n/a	n/a	n/a	j	4	0.05000000000000002	1	j	1	0.4579219219158404
7	60	n/a	n/a	n/a	j	4	0.04000000000000001	2	j	1	0.445592479489278
7	61	n/a	n/a	n/a	j	4	0.05000000000000002	2	j	1	0.449890649819281
7	62	n/a	n/a	n/a	f	4	0.06000000000000002	2	j	0	0.4138417277717963
7	63	n/a	n/a	n/a	j	4	0.07000000000000002	1	j	1	0.4739157568837982
7	64	n/a	n/a	n/a	j	4	0.06000000000000002	2	j	1	0.397284249716904
7	65	n/a	n/a	n/a	j	4	0.07000000000000002	1	j	1	0.4249078912544064
7	66	n/a	n/a	n/a	j	4	0.06000000000000002	1	j	1	0.4594269657391123
7	67	n/a	n/a	n/a	j	4	0.05000000000000002	2	j	1	0.4709575574088376
7	68	n/a	n/a	n/a	f	4	0.06000000000000002	2	f	1	0.4936740546545479
7	69	n/a	n/a	n/a	j	4	0.07000000000000002	2	j	1	0.4327509971917607
7	70	n/a	n/a	n/a	j	4	0.08000000000000002	1	j	1	0.4756967777211685
7	71	n/a	n/a	n/a	j	4	0.07000000000000002	2	j	1	0.478586838231422
8	0	j	1	0.5876433590601664	j	10	0.1	0	j	1	0.8969858923810534
8	1	n/a	n/a	n/a	f	10	0.11	1	f	1	0.930927639012225
8	2	n/a	n/a	n/a	j	10	0.1	1	j	1	0.8378988800977822
8	3	n/a	n/a	n/a	j	10	0.09000000000000001	0	j	1	0.7691164659918286
8	4	n/a	n/a	n/a	j	10	0.1	0	j	1	0.8363311142020393
8	5	n/a	n/a	n/a	f	10	0.11	0	f	1	0.9279654481506441
8	6	n/a	n/a	n/a	j	10	0.12	1	j	1	0.7707937103405129
8	7	n/a	n/a	n/a	j	10	0.11	0	j	1	0.8053837747720536
8	8	n/a	n/a	n/a	j	10	0.12	0	f	0	0.8324258119391743
8	9	n/a	n/a	n/a	f	10	0.13	0	j	0	0.7715888547536451
8	10	n/a	n/a	n/a	j	10	0.14	0	j	1	0.7752053505391814
8	11	n/a	n/a	n/a	j	10	0.15	0	j	1	0.8344588613254018
8	12	n/a	n/a	n/a	j	10	0.16	1	j	1	0.8886432909348514
8	13	n/a	n/a	n/a	f	10	0.15	1	f	1	0.900315292266896
8	14	n/a	n/a	n/a	j	10	0.14	1	j	1	0.7919957554258872
8	15	n/a	n/a	n/a	j	10	0.13	0	j	1	0.9072643240506295
8	16	n/a	n/a	n/a	j	10	0.14	1	j	1	0.8710945195343811
8	17	n/a	n/a	n/a	f	10	0.13	1	f	1	0.857901793817291
8	18	n/a	n/a	n/a	j	10	0.12	0	j	1	0.7901203664659988
8	19	n/a	n/a	n/a	j	10	0.13	0	j	1	0.8011189611861482
8	20	n/a	n/a	n/a	j	10	0.14	0	j	1	0.8752809306024574
8	21	n/a	n/a	n/a	f	10	0.15	1	f	1	0.7820343551284168
8	22	n/a	n/a	n/a	j	10	0.14	0	j	1	0.7529897743079346
8	23	n/a	n/a	n/a	j	10	0.15	0	j	1	0.9485194605076686
8	24	n/a	n/a	n/a	j	10	0.16	0	f	0	1.000029365328373
8	25	n/a	n/a	n/a	f	10	0.15	1	f	1	1.19481978676049
8	26	n/a	n/a	n/a	j	10	0.14	2	j	1	0.8946532027039211
8	27	n/a	n/a	n/a	j	10	0.15	1	j	1	1.049647915526293
8	28	n/a	n/a	n/a	j	10	0.14	1	j	1	0.9095379979989957
8	29	n/a	n/a	n/a	f	10	0.13	1	j	0	0.7285797820077278
8	30	n/a	n/a	n/a	j	10	0.12	0	j	1	0.8355308379977942
8	31	n/a	n/a	n/a	j	10	0.13	0	j	1	0.7435934426030144
8	32	n/a	n/a	n/a	j	10	0.14	0	j	1	0.8103633345454
8	33	n/a	n/a	n/a	f	10	0.15	0	j	0	1.156310165039031
8	34	n/a	n/a	n/a	j	10	0.16	2	j	1	0.7672339495038614
8	35	n/a	n/a	n/a	j	10	0.17	0	j	1	0.7152236938709393
8	36	n/a	n/a	n/a	j	10	0.18	0	j	1	0.7843550706165843
8	37	n/a	n/a	n/a	f	10	0.1900000000000001	0	j	0	0.8112152138783131
8	38	n/a	n/a	n/a	j	10	0.2000000000000001	1	j	1	0.726135333039565
8	39	n/a	n/a	n/a	j	10	0.1900000000000001	0	j	1	0.7141691083088517
8	40	n/a	n/a	n/a	j	10	0.2000000000000001	0	j	1	0.9566259990388062
8	41	n/a	n/a	n/a	f	10	0.2100000000000001	0	j	0	0.9447147986211348
8	42	n/a	n/a	n/a	j	10	0.2000000000000001	1	j	1	0.7719734548882116
8	43	n/a	n/a	n/a	j	10	0.1900000000000001	0	j	1	0.5692504060280044
8	44	n/a	n/a	n/a	j	10	0.2000000000000001	0	j	1	0.676785917399684
8	45	n/a	n/a	n/a	f	10	0.2100000000000001	0	j	0	0.5119609504181426
8	46	n/a	n/a	n/a	j	10	0.2200000000000001	0	j	1	0.5479959025396965
8	47	n/a	n/a	n/a	j	10	0.2300000000000001	0	j	1	0.5666742408357095
8	48	n/a	n/a	n/a	j	10	0.2400000000000001	0	j	1	0.6334720725717489
8	49	n/a	n/a	n/a	f	10	0.2500000000000001	0	f	1	0.7085931189940311
8	50	n/a	n/a	n/a	j	10	0.2600000000000001	0	j	1	0.9117386862926651
8	51	n/a	n/a	n/a	j	10	0.2700000000000001	1	j	1	0.8901275224634446
8	52	n/a	n/a	n/a	j	10	0.2600000000000001	1	j	1	0.7825278635427821
8	53	n/a	n/a	n/a	f	10	0.2500000000000001	1	f	1	0.9545898135693278
8	54	n/a	n/a	n/a	j	10	0.2400000000000001	1	j	1	0.757942249532789
8	55	n/a	n/a	n/a	j	10	0.2300000000000001	1	f	0	1.137376377009787
8	56	n/a	n/a	n/a	j	10	0.2200000000000001	1	j	1	0.9083035142393783
8	57	n/a	n/a	n/a	f	10	0.2100000000000001	1	j	0	0.6964589702547528
8	58	n/a	n/a	n/a	j	10	0.2000000000000001	0	j	1	0.6522630254330579
8	59	n/a	n/a	n/a	j	10	0.2100000000000001	0	j	1	0.9350373581110034
8	60	n/a	n/a	n/a	j	10	0.2200000000000001	1	j	1	0.7791394479281735
8	61	n/a	n/a	n/a	f	10	0.2100000000000001	0	f	1	1.055081924947444
8	62	n/a	n/a	n/a	j	10	0.2200000000000001	1	j	1	0.7857286832586396
8	63	n/a	n/a	n/a	j	10	0.2100000000000001	1	j	1	0.877008637675317
8	64	n/a	n/a	n/a	j	10	0.2000000000000001	1	j	1	0.7921796450391412
8	65	n/a	n/a	n/a	f	10	0.1900000000000001	0	f	1	0.8343716206727549
8	66	n/a	n/a	n/a	j	10	0.2000000000000001	1	j	1	0.8627516329870559
8	67	n/a	n/a	n/a	j	10	0.1900000000000001	1	j	1	0.8497881277871784
8	68	n/a	n/a	n/a	j	10	0.18	1	j	1	0.9088204008585308
8	69	n/a	n/a	n/a	f	10	0.17	1	f	1	0.9691464585193899
8	70	n/a	n/a	n/a	j	10	0.16	1	j	1	0.8516589551873039
8	71	n/a	n/a	n/a	j	10	0.15	1	j	1	0.8866894993989263
9	0	f	1	1.224517817172455	f	3	0.1	2	f	1	0.3577787730901036
9	1	n/a	n/a	n/a	f	3	0.11	1	f	1	0.4079142099362798
9	2	n/a	n/a	n/a	j	3	0.1	1	j	1	0.3387012945604511
9	3	n/a	n/a	n/a	f	3	0.09000000000000001	1	f	1	0.4057936347962823
9	4	n/a	n/a	n/a	f	3	0.08000000000000002	1	f	1	0.4116983446292579
9	5	n/a	n/a	n/a	f	3	0.07000000000000002	1	f	1	0.4065756645868532
9	6	n/a	n/a	n/a	f	3	0.06000000000000002	1	j	0	0.04288163298042491
9	7	n/a	n/a	n/a	f	3	0.05000000000000002	0	f	1	0.8434902648150455
9	8	n/a	n/a	n/a	j	3	0.06000000000000002	0	f	0	0.4247240016411524
9	9	n/a	n/a	n/a	f	3	0.07000000000000002	1	f	1	0.6195526264782529
9	10	n/a	n/a	n/a	f	3	0.06000000000000002	2	f	1	0.4305066886008717
9	11	n/a	n/a	n/a	f	3	0.07000000000000002	1	f	1	0.4411050026828889
9	12	n/a	n/a	n/a	f	3	0.06000000000000002	1	f	1	0.5415800080809277
9	13	n/a	n/a	n/a	f	3	0.05000000000000002	2	f	1	0.4246515861887019
9	14	n/a	n/a	n/a	j	3	0.06000000000000002	1	j	1	0.3880626843892969
9	15	n/a	n/a	n/a	f	3	0.05000000000000002	1	f	1	0.4314683314878494
9	16	n/a	n/a	n/a	f	3	0.04000000000000001	2	f	1	0.46836000966141
9	17	n/a	n/a	n/a	f	3	0.05000000000000002	2	j	0	0.4393413729558233
9	18	n/a	n/a	n/a	f	3	0.06000000000000002	1	f	1	0.5072855925245676
9	19	n/a	n/a	n/a	f	3	0.05000000000000002	2	f	1	0.4790555429062806
9	20	n/a	n/a	n/a	j	3	0.06000000000000002	2	f	0	0.3622032427811064
9	21	n/a	n/a	n/a	f	3	0.07000000000000002	1	f	1	0.5332311344100162
9	22	n/a	n/a	n/a	f	3	0.06000000000000002	2	f	1	0.4323672523605637
9	23	n/a	n/a	n/a	f	3	0.07000000000000002	1	f	1	0.4430465348996222
9	24	n/a	n/a	n/a	f	3	0.06000000000000002	1	j	0	0.4872322161099873
9	25	n/a	n/a	n/a	f	3	0.05000000000000002	2	f	1	0.5172954598674551
9	26	n/a	n/a	n/a	j	3	0.06000000000000002	2	f	0	0.5129796133551281
9	27	n/a	n/a	n/a	f	3	0.07000000000000002	2	f	1	0.5409544982830994
9	28	n/a	n/a	n/a	f	3	0.08000000000000002	2	f	1	0.456137194763869
9	29	n/a	n/a	n/a	f	3	0.09000000000000001	2	j	0	1.259948071849067
9	30	n/a	n/a	n/a	f	3	0.08000000000000002	2	f	1	0.4410562505363487
9	31	n/a	n/a	n/a	f	3	0.09000000000000001	1	f	1	0.3478481636266224
9	32	n/a	n/a	n/a	j	3	0.08000000000000002	1	f	0	0.4388367456558626
9	33	n/a	n/a	n/a	f	3	0.07000000000000002	1	f	1	0.4097972965973895
9	34	n/a	n/a	n/a	f	3	0.06000000000000002	1	f	1	0.3738390364160296
9	35	n/a	n/a	n/a	f	3	0.05000000000000002	1	f	1	0.3933715348539408
9	36	n/a	n/a	n/a	f	3	0.04000000000000001	1	f	1	0.4697806638723705
9	37	n/a	n/a	n/a	f	3	0.03000000000000001	2	f	1	0.4169190991087817
9	38	n/a	n/a	n/a	j	3	0.04000000000000001	1	j	1	0.3874411660071928
9	39	n/a	n/a	n/a	f	3	0.03000000000000001	1	f	1	0.3985515200183727
9	40	n/a	n/a	n/a	f	3	0.02000000000000001	1	f	1	0.4256280543049797
9	41	n/a	n/a	n/a	f	3	0.01000000000000001	2	f	1	0.4053488784993533
9	42	n/a	n/a	n/a	f	3	0.02000000000000001	2	f	1	0.4083298859768547
9	43	n/a	n/a	n/a	f	3	0.03000000000000001	1	f	1	0.3006737772666384
9	44	n/a	n/a	n/a	j	3	0.02000000000000001	1	f	0	0.551541408378398
9	45	n/a	n/a	n/a	f	3	0.03000000000000001	2	f	1	0.8105489347362891
9	46	n/a	n/a	n/a	f	3	0.04000000000000001	2	f	1	0.4384618389303796
9	47	n/a	n/a	n/a	f	3	0.05000000000000002	2	f	1	0.3694482085702475
9	48	n/a	n/a	n/a	f	3	0.06000000000000002	1	f	1	0.4203939001017716
9	49	n/a	n/a	n/a	f	3	0.05000000000000002	1	f	1	0.415410919173155
9	50	n/a	n/a	n/a	j	3	0.04000000000000001	1	j	1	0.4414531100192107
9	51	n/a	n/a	n/a	f	3	0.03000000000000001	2	f	1	0.4359846034494694
9	52	n/a	n/a	n/a	f	3	0.04000000000000001	2	f	1	0.4550957237952389
9	53	n/a	n/a	n/a	f	3	0.05000000000000002	2	f	1	0.4498935008305125
9	54	n/a	n/a	n/a	f	3	0.06000000000000002	2	f	1	0.4937803970242385
9	55	n/a	n/a	n/a	f	3	0.07000000000000002	2	f	1	0.3618867815821432
9	56	n/a	n/a	n/a	j	3	0.08000000000000002	2	f	0	0.5331113923457451
9	57	n/a	n/a	n/a	f	3	0.07000000000000002	2	f	1	0.7930782808107324
9	58	n/a	n/a	n/a	f	3	0.08000000000000002	2	f	1	0.4121687599108554
9	59	n/a	n/a	n/a	f	3	0.09000000000000001	1	f	1	0.3443271763972007
9	60	n/a	n/a	n/a	f	3	0.08000000000000002	1	f	1	0.4829477305756882
9	61	n/a	n/a	n/a	f	3	0.07000000000000002	2	f	1	0.4380396055348683
9	62	n/a	n/a	n/a	j	3	0.08000000000000002	1	j	1	0.4811801094620023
9	63	n/a	n/a	n/a	f	3	0.07000000000000002	2	f	1	0.3959884694195352
9	64	n/a	n/a	n/a	f	3	0.08000000000000002	1	f	1	0.4386471540201455
9	65	n/a	n/a	n/a	f	3	0.07000000000000002	1	f	1	0.4271539104811382
9	66	n/a	n/a	n/a	f	3	0.06000000000000002	1	f	1	0.4859640905051492
9	67	n/a	n/a	n/a	f	3	0.05000000000000002	2	f	1	0.4008588357828557
9	68	n/a	n/a	n/a	j	3	0.06000000000000002	2	f	0	0.514931124082068
9	69	n/a	n/a	n/a	f	3	0.05000000000000002	2	f	1	0.3815966123365797
9	70	n/a	n/a	n/a	f	3	0.06000000000000002	1	f	1	0.4169689916598145
9	71	n/a	n/a	n/a	f	3	0.05000000000000002	1	f	1	0.4598107105994131
10	0	f	1	0.1047720353235491	f	9	0.1	0	f	1	1.111085008597001
10	1	n/a	n/a	n/a	j	9	0.11	2	j	1	0.9929782676917966
10	2	n/a	n/a	n/a	f	9	0.12	1	f	1	0.8844882409030106
10	3	n/a	n/a	n/a	f	9	0.11	1	f	1	1.015744372329209
10	4	n/a	n/a	n/a	f	9	0.1	1	j	0	1.026780315180076
10	5	n/a	n/a	n/a	j	9	0.09000000000000001	1	f	0	0.9414954473613761
10	6	n/a	n/a	n/a	f	9	0.08000000000000002	1	f	1	0.9530018055520486
10	7	n/a	n/a	n/a	f	9	0.07000000000000002	1	j	0	0.9233505315205548
10	8	n/a	n/a	n/a	f	9	0.06000000000000002	0	f	1	0.9023118488548789
10	9	n/a	n/a	n/a	j	9	0.07000000000000002	0	f	0	0.7931615300767589
10	10	n/a	n/a	n/a	f	9	0.08000000000000002	0	f	1	0.820014830911532
10	11	n/a	n/a	n/a	f	9	0.09000000000000001	0	j	0	0.7751842531433795
10	12	n/a	n/a	n/a	f	9	0.1	0	f	1	0.8184995234769303
10	13	n/a	n/a	n/a	j	9	0.11	0	f	0	0.7023374508426059
10	14	n/a	n/a	n/a	f	9	0.12	0	f	1	0.7614199015370104
10	15	n/a	n/a	n/a	f	9	0.13	0	f	1	0.7243363509478513
10	16	n/a	n/a	n/a	f	9	0.14	0	f	1	0.8552614810469095
10	17	n/a	n/a	n/a	j	9	0.15	1	j	1	0.8112964674073737
10	18	n/a	n/a	n/a	f	9	0.14	0	f	1	0.7982696699909866
10	19	n/a	n/a	n/a	f	9	0.15	0	f	1	0.7128681961912662
10	20	n/a	n/a	n/a	f	9	0.16	0	f	1	0.8270545245613903
10	21	n/a	n/a	n/a	j	9	0.17	0	f	0	0.6871299221529625
10	22	n/a	n/a	n/a	f	9	0.16	0	f	1	0.7149636824906338
10	23	n/a	n/a	n/a	f	9	0.17	0	f	1	0.7015300471393857
10	24	n/a	n/a	n/a	f	9	0.18	0	f	1	0.8330823976430111
10	25	n/a	n/a	n/a	j	9	0.1900000000000001	0	f	0	0.779793752823025
10	26	n/a	n/a	n/a	f	9	0.18	0	f	1	0.7987745823920704
10	27	n/a	n/a	n/a	f	9	0.1900000000000001	1	f	1	0.7857620400027372
10	28	n/a	n/a	n/a	f	9	0.18	0	f	1	0.7647096725122537
10	29	n/a	n/a	n/a	j	9	0.1900000000000001	0	j	1	0.8395975069724955
10	30	n/a	n/a	n/a	f	9	0.2000000000000001	1	f	1	0.8182221209572162
10	31	n/a	n/a	n/a	f	9	0.1900000000000001	1	f	1	1.093623192777159
10	32	n/a	n/a	n/a	f	9	0.18	1	f	1	0.8632009508728515
10	33	n/a	n/a	n/a	j	9	0.17	1	j	1	0.8431119368760847
10	34	n/a	n/a	n/a	f	9	0.16	1	f	1	0.8383265303855296
10	35	n/a	n/a	n/a	f	9	0.15	1	f	1	0.736053113010712
10	36	n/a	n/a	n/a	f	9	0.14	0	f	1	0.8670780282118358
10	37	n/a	n/a	n/a	j	9	0.15	1	j	1	0.7182671383197885
10	38	n/a	n/a	n/a	f	9	0.14	0	f	1	0.7613928170176223
10	39	n/a	n/a	n/a	f	9	0.15	0	f	1	0.9241442504280712
10	40	n/a	n/a	n/a	f	9	0.16	1	f	1	0.9362265109375585
10	41	n/a	n/a	n/a	j	9	0.15	1	j	1	0.7950354935310315
10	42	n/a	n/a	n/a	f	9	0.14	0	f	1	0.8059984507563058
10	43	n/a	n/a	n/a	f	9	0.15	0	f	1	0.8890789239958394
10	44	n/a	n/a	n/a	f	9	0.16	1	f	1	0.8919370533258189
10	45	n/a	n/a	n/a	j	9	0.15	1	j	1	0.8068677211995237
10	46	n/a	n/a	n/a	f	9	0.14	0	f	1	0.8011497520201374
10	47	n/a	n/a	n/a	f	9	0.15	0	f	1	0.9244778176362161
10	48	n/a	n/a	n/a	f	9	0.16	1	f	1	0.8878951880615205
10	49	n/a	n/a	n/a	j	9	0.15	1	j	1	0.8525518889364321
10	50	n/a	n/a	n/a	f	9	0.14	1	f	1	0.8162723208370153
10	51	n/a	n/a	n/a	f	9	0.13	0	f	1	0.90757080676849
10	52	n/a	n/a	n/a	f	9	0.14	1	f	1	0.9344962379545905
10	53	n/a	n/a	n/a	j	9	0.13	1	j	1	0.8044161447614897
10	54	n/a	n/a	n/a	f	9	0.12	0	f	1	0.8552780168829486
10	55	n/a	n/a	n/a	f	9	0.13	0	f	1	0.8434187046659645
10	56	n/a	n/a	n/a	f	9	0.14	0	j	0	1.007501841027988
10	57	n/a	n/a	n/a	j	9	0.13	0	f	0	0.8742947690770961
10	58	n/a	n/a	n/a	f	9	0.12	1	f	1	0.9098054219793994
10	59	n/a	n/a	n/a	f	9	0.11	1	f	1	0.9282796285406221
10	60	n/a	n/a	n/a	f	9	0.1	1	f	1	0.9310545085754711
10	61	n/a	n/a	n/a	j	9	0.09000000000000002	1	j	1	0.9347385731234681
10	62	n/a	n/a	n/a	f	9	0.08000000000000003	1	f	1	0.8351251404674258
10	63	n/a	n/a	n/a	f	9	0.07000000000000003	0	f	1	0.8469451088167261
10	64	n/a	n/a	n/a	f	9	0.08000000000000003	0	f	1	0.8660183108295314
10	65	n/a	n/a	n/a	j	9	0.09000000000000002	0	j	1	0.8208578721387312
10	66	n/a	n/a	n/a	f	9	0.1	0	f	1	0.8808637623151299
10	67	n/a	n/a	n/a	f	9	0.11	1	f	1	0.8453137655742466
10	68	n/a	n/a	n/a	f	9	0.1	0	f	1	0.8896796300832648
10	69	n/a	n/a	n/a	j	9	0.11	0	f	0	0.8445990194450133
10	70	n/a	n/a	n/a	f	9	0.1	0	j	0	0.7284665972401854
10	71	n/a	n/a	n/a	f	9	0.11	0	f	1	0.8516039308451582
11	0	f	0	0.006580967456102371	f	11	0.1	0	f	1	1.07989333831938
11	1	n/a	n/a	n/a	f	11	0.11	1	f	1	1.028145374846645
11	2	n/a	n/a	n/a	j	11	0.1	1	j	1	0.990746503463015
11	3	n/a	n/a	n/a	f	11	0.09000000000000001	1	f	1	0.9135621870518662
11	4	n/a	n/a	n/a	f	11	0.08000000000000002	1	f	1	0.9575899227347691
11	5	n/a	n/a	n/a	f	11	0.07000000000000002	1	j	0	0.9447815120802261
11	6	n/a	n/a	n/a	f	11	0.06000000000000002	1	f	1	0.9404103560955264
11	7	n/a	n/a	n/a	f	11	0.05000000000000002	1	f	1	1.016709151357645
11	8	n/a	n/a	n/a	j	11	0.04000000000000001	1	f	0	0.9713793631235603
11	9	n/a	n/a	n/a	f	11	0.03000000000000001	1	f	1	0.9263361005869228
11	10	n/a	n/a	n/a	f	11	0.02000000000000001	0	f	1	1.033331917336909
11	11	n/a	n/a	n/a	f	11	0.03000000000000001	2	f	1	0.8692918310989626
11	12	n/a	n/a	n/a	f	11	0.04000000000000001	0	f	1	0.88039619801566
11	13	n/a	n/a	n/a	f	11	0.05000000000000002	0	f	1	0.9562485264032148
11	14	n/a	n/a	n/a	j	11	0.06000000000000002	1	j	1	0.8790816011023708
11	15	n/a	n/a	n/a	f	11	0.05000000000000002	0	f	1	0.7941488320066128
11	16	n/a	n/a	n/a	f	11	0.06000000000000002	0	f	1	0.9900693905365188
11	17	n/a	n/a	n/a	f	11	0.07000000000000002	0	j	0	1.033137193910079
11	18	n/a	n/a	n/a	f	11	0.06000000000000002	1	f	1	0.8519434851477854
11	19	n/a	n/a	n/a	f	11	0.05000000000000002	0	f	1	0.8865115968801547
11	20	n/a	n/a	n/a	j	11	0.06000000000000002	0	j	1	0.8668576457712334
11	21	n/a	n/a	n/a	f	11	0.07000000000000002	0	f	1	0.8698389383498579
11	22	n/a	n/a	n/a	f	11	0.08000000000000002	0	f	1	0.9204125741962343
11	23	n/a	n/a	n/a	f	11	0.09000000000000001	1	f	1	0.8029227900260594
11	24	n/a	n/a	n/a	f	11	0.08000000000000002	0	f	1	0.8691042351711076
11	25	n/a	n/a	n/a	f	11	0.09000000000000001	0	f	1	0.8726531622523908
11	26	n/a	n/a	n/a	j	11	0.1	0	f	0	1.019492299295962
11	27	n/a	n/a	n/a	f	11	0.11	1	f	1	0.8065221797733102
11	28	n/a	n/a	n/a	f	11	0.1	0	f	1	0.8001835474860854
11	29	n/a	n/a	n/a	f	11	0.11	0	f	1	0.9713414448197
11	30	n/a	n/a	n/a	f	11	0.12	1	f	1	1.022360407107044
11	31	n/a	n/a	n/a	f	11	0.11	1	f	1	0.9040777593618259
11	32	n/a	n/a	n/a	j	11	0.1	1	j	1	0.9312332663976122
11	33	n/a	n/a	n/a	f	11	0.09000000000000001	1	f	1	0.8141315036045853
11	34	n/a	n/a	n/a	f	11	0.08000000000000002	0	f	1	0.9301168140955269
11	35	n/a	n/a	n/a	f	11	0.09000000000000001	1	f	1	0.8801150892395526
11	36	n/a	n/a	n/a	f	11	0.08000000000000002	0	f	1	0.8669776729366276
11	37	n/a	n/a	n/a	f	11	0.09000000000000001	0	f	1	0.8856026975263376
11	38	n/a	n/a	n/a	j	11	0.1	1	j	1	0.9680619374266826
11	39	n/a	n/a	n/a	f	11	0.09000000000000001	1	f	1	0.8998306219582446
11	40	n/a	n/a	n/a	f	11	0.08000000000000002	0	f	1	0.9449257727246732
11	41	n/a	n/a	n/a	f	11	0.09000000000000001	1	f	1	0.9317718206439167
11	42	n/a	n/a	n/a	f	11	0.08000000000000002	1	f	1	0.8946740150277037
11	43	n/a	n/a	n/a	f	11	0.07000000000000002	0	f	1	1.025694368639961
11	44	n/a	n/a	n/a	j	11	0.08000000000000002	1	j	1	1.22027182020247
11	45	n/a	n/a	n/a	f	11	0.07000000000000002	2	f	1	0.8875188558304217
11	46	n/a	n/a	n/a	f	11	0.08000000000000002	0	f	1	0.8354467334283981
11	47	n/a	n/a	n/a	f	11	0.09000000000000001	0	f	1	1.039443039684556
11	48	n/a	n/a	n/a	f	11	0.1	1	f	1	0.9783757215482183
11	49	n/a	n/a	n/a	f	11	0.09000000000000001	1	f	1	0.9407821267377585
11	50	n/a	n/a	n/a	j	11	0.08000000000000002	1	f	0	1.073464329267154
11	51	n/a	n/a	n/a	f	11	0.07000000000000002	2	f	1	0.8368488561536651
11	52	n/a	n/a	n/a	f	11	0.08000000000000002	0	f	1	0.8323143377783708
11	53	n/a	n/a	n/a	f	11	0.09000000000000001	0	f	1	0.9470663049141876
11	54	n/a	n/a	n/a	f	11	0.1	1	f	1	0.9015195554529782
11	55	n/a	n/a	n/a	f	11	0.09000000000000001	1	f	1	0.9611579514748883
11	56	n/a	n/a	n/a	j	11	0.08000000000000002	1	j	1	0.9639371080265846
11	57	n/a	n/a	n/a	f	11	0.07000000000000002	1	f	1	0.9348819784936495
11	58	n/a	n/a	n/a	f	11	0.06000000000000002	1	f	1	0.8738340471754782
11	59	n/a	n/a	n/a	f	11	0.05000000000000002	0	f	1	1.08456983655924
11	60	n/a	n/a	n/a	f	11	0.06000000000000002	2	f	1	0.9928131946653593
11	61	n/a	n/a	n/a	f	11	0.07000000000000002	1	f	1	0.9727920345321763
11	62	n/a	n/a	n/a	j	11	0.06000000000000002	1	f	0	1.007690862461459
11	63	n/a	n/a	n/a	f	11	0.05000000000000002	1	f	1	0.9784948934102431
11	64	n/a	n/a	n/a	f	11	0.04000000000000001	1	f	1	0.9585284725471865
11	65	n/a	n/a	n/a	f	11	0.03000000000000001	1	f	1	0.929716818529414
11	66	n/a	n/a	n/a	f	11	0.02000000000000001	0	f	1	0.9329589777917136
11	67	n/a	n/a	n/a	f	11	0.03000000000000001	0	f	1	0.8903949464438483
11	68	n/a	n/a	n/a	j	11	0.04000000000000001	0	j	1	1.087007728230674
11	69	n/a	n/a	n/a	f	11	0.05000000000000002	2	f	1	0.8996695404057391
11	70	n/a	n/a	n/a	f	11	0.06000000000000002	0	f	1	0.8581526819616556
11	71	n/a	n/a	n/a	f	11	0.07000000000000002	0	f	1	0.8849546647979878
12	0	j	1	0.04699363285908476	j	8	0.06000000000000002	2	j	1	0.6228686266986188
12	1	n/a	n/a	n/a	j	8	0.07000000000000002	1	j	1	0.5927449416776653
12	2	n/a	n/a	n/a	f	8	0.06000000000000002	1	j	0	0.6039354088425171
12	3	n/a	n/a	n/a	j	8	0.05000000000000002	1	j	1	0.5673499282565899
12	4	n/a	n/a	n/a	j	8	0.04000000000000001	1	j	1	0.5706231634248979
12	5	n/a	n/a	n/a	j	8	0.03000000000000001	1	j	1	0.5106172732484993
12	6	n/a	n/a	n/a	j	8	0.02000000000000001	0	j	1	0.625616992416326
12	7	n/a	n/a	n/a	j	8	0.03000000000000001	2	j	1	0.5265674879192375
12	8	n/a	n/a	n/a	f	8	0.04000000000000001	0	f	1	0.5145228606124874
12	9	n/a	n/a	n/a	j	8	0.05000000000000002	0	j	1	0.5575119763670955
12	10	n/a	n/a	n/a	j	8	0.06000000000000002	1	j	1	0.6024634366040118
12	11	n/a	n/a	n/a	j	8	0.05000000000000002	1	j	1	0.5504531810001936
12	12	n/a	n/a	n/a	j	8	0.04000000000000001	1	j	1	0.6195129975676537
12	13	n/a	n/a	n/a	j	8	0.03000000000000001	1	j	1	0.5503419919114094
12	14	n/a	n/a	n/a	f	8	0.02000000000000001	0	f	1	0.5293389467697125
12	15	n/a	n/a	n/a	j	8	0.03000000000000001	0	j	1	0.5723146627715323
12	16	n/a	n/a	n/a	j	8	0.04000000000000001	1	j	1	0.5604827202332672
12	17	n/a	n/a	n/a	j	8	0.03000000000000001	1	j	1	0.6043160175904632
12	18	n/a	n/a	n/a	j	8	0.02000000000000001	1	f	0	0.1284022786130663
12	19	n/a	n/a	n/a	j	8	0.01000000000000001	0	j	1	0.6043944201082923
12	20	n/a	n/a	n/a	f	8	0.02000000000000001	0	j	0	0.5752255356346723
12	21	n/a	n/a	n/a	j	8	0.01000000000000001	0	j	1	0.5710702005017083
12	22	n/a	n/a	n/a	j	8	0.02000000000000001	1	j	1	0.5417436556017492
12	23	n/a	n/a	n/a	j	8	0.01000000000000001	0	j	1	0.57008917076746
12	24	n/a	n/a	n/a	j	8	0.02000000000000001	1	j	1	0.5819273855304345
12	25	n/a	n/a	n/a	j	8	0.01000000000000001	1	j	1	0.5291564826620743
12	26	n/a	n/a	n/a	f	8	1.040834085586084e-17	1	j	0	0.5555222622060683
12	27	n/a	n/a	n/a	j	8	0.01000000000000001	0	j	1	0.5746137106325477
12	28	n/a	n/a	n/a	j	8	0.02000000000000001	1	j	1	0.5374161199724767
12	29	n/a	n/a	n/a	j	8	0.01000000000000001	0	j	1	0.5813677339174319
12	30	n/a	n/a	n/a	j	8	0.02000000000000001	1	j	1	0.5849762468715198
12	31	n/a	n/a	n/a	j	8	0.01000000000000001	1	j	1	0.6038002713466994
12	32	n/a	n/a	n/a	f	8	1.040834085586084e-17	2	f	1	0.5188141885155346
12	33	n/a	n/a	n/a	j	8	0.01000000000000001	0	j	1	0.5716489538608585
12	34	n/a	n/a	n/a	j	8	0.02000000000000001	1	j	1	0.6318087981489953
12	35	n/a	n/a	n/a	j	8	0.01000000000000001	2	j	1	0.5545936909038574
12	36	n/a	n/a	n/a	j	8	0.02000000000000001	0	j	1	0.6292075440869667
12	37	n/a	n/a	n/a	j	8	0.03000000000000001	2	j	1	0.6576574059727136
12	38	n/a	n/a	n/a	f	8	0.04000000000000001	2	f	1	0.5817514787486289
12	39	n/a	n/a	n/a	j	8	0.05000000000000002	1	j	1	0.7046670044073835
12	40	n/a	n/a	n/a	j	8	0.04000000000000001	2	j	1	0.6275203212280758
12	41	n/a	n/a	n/a	j	8	0.05000000000000002	2	f	0	0.6383772211847827
12	42	n/a	n/a	n/a	j	8	0.04000000000000001	2	j	1	0.5854378240765072
12	43	n/a	n/a	n/a	j	8	0.05000000000000002	1	j	1	0.6123569830670021
12	44	n/a	n/a	n/a	f	8	0.04000000000000001	1	j	0	0.6553338394733146
12	45	n/a	n/a	n/a	j	8	0.03000000000000001	2	j	1	0.5619347354513593
12	46	n/a	n/a	n/a	j	8	0.04000000000000001	1	j	1	0.5467468786519021
12	47	n/a	n/a	n/a	j	8	0.03000000000000001	0	j	1	0.5181293778878171
12	48	n/a	n/a	n/a	j	8	0.04000000000000001	0	j	1	0.6483990627166349
12	49	n/a	n/a	n/a	j	8	0.05000000000000002	2	j	1	0.5547416579211131
12	50	n/a	n/a	n/a	f	8	0.06000000000000002	1	f	1	0.5660601350537036
12	51	n/a	n/a	n/a	j	8	0.05000000000000002	1	j	1	0.5768072714272421
12	52	n/a	n/a	n/a	j	8	0.04000000000000001	1	j	1	0.628104776609689
12	53	n/a	n/a	n/a	j	8	0.03000000000000001	1	f	0	0.6706995987915434
12	54	n/a	n/a	n/a	j	8	0.04000000000000001	2	j	1	0.5949273835576605
12	55	n/a	n/a	n/a	j	8	0.05000000000000002	1	j	1	0.6297834464348853
12	56	n/a	n/a	n/a	f	8	0.04000000000000001	1	j	0	0.5849628471478354
12	57	n/a	n/a	n/a	j	8	0.05000000000000002	1	j	1	0.6198015189729631
12	58	n/a	n/a	n/a	j	8	0.04000000000000001	1	j	1	0.5989008247561287
12	59	n/a	n/a	n/a	j	8	0.03000000000000001	1	j	1	0.5298891901038587
12	60	n/a	n/a	n/a	j	8	0.02000000000000001	0	j	1	0.6448504207655787
12	61	n/a	n/a	n/a	j	8	0.03000000000000001	2	j	1	0.6235374716925435
12	62	n/a	n/a	n/a	f	8	0.04000000000000001	1	f	1	0.485663594910875
12	63	n/a	n/a	n/a	j	8	0.03000000000000001	0	j	1	0.5674722362309694
12	64	n/a	n/a	n/a	j	8	0.04000000000000001	1	j	1	0.5466097454773262
12	65	n/a	n/a	n/a	j	8	0.03000000000000001	0	j	1	0.6535354275547434
12	66	n/a	n/a	n/a	j	8	0.04000000000000001	2	j	1	0.6487257875269279
12	67	n/a	n/a	n/a	j	8	0.05000000000000002	2	j	1	0.5874971026787534
12	68	n/a	n/a	n/a	f	8	0.06000000000000002	1	f	1	0.5836759049561806
12	69	n/a	n/a	n/a	j	8	0.05000000000000002	1	j	1	0.586048223573016
12	70	n/a	n/a	n/a	j	8	0.04000000000000001	1	j	1	0.5494544750545174
12	71	n/a	n/a	n/a	j	8	0.03000000000000001	0	j	1	0.5374489064852241
13	0	f	1	0.0205771054897923	f	5	0.04000000000000001	0	f	1	0.6425724703294691
13	1	n/a	n/a	n/a	j	5	0.05000000000000002	2	j	1	0.5813523384858854
13	2	n/a	n/a	n/a	f	5	0.06000000000000002	1	f	1	0.5863472936325707
13	3	n/a	n/a	n/a	f	5	0.05000000000000002	1	f	1	0.5737589802884031
13	4	n/a	n/a	n/a	f	5	0.04000000000000001	1	f	1	0.6172897863725666
13	5	n/a	n/a	n/a	j	5	0.03000000000000001	1	f	0	0.5961772627488244
13	6	n/a	n/a	n/a	f	5	0.04000000000000001	1	f	1	0.5923278401023708
13	7	n/a	n/a	n/a	f	5	0.03000000000000001	1	f	1	0.5706000702921301
13	8	n/a	n/a	n/a	f	5	0.02000000000000001	1	f	1	0.5740845646942034
13	9	n/a	n/a	n/a	j	5	0.01000000000000001	1	j	1	0.5531972702010535
13	10	n/a	n/a	n/a	f	5	1.040834085586084e-17	0	f	1	0.5560132047103252
13	11	n/a	n/a	n/a	f	5	0.01000000000000001	0	f	1	0.5211953452089801
13	12	n/a	n/a	n/a	f	5	0.02000000000000001	0	f	1	0.5960580908867996
13	13	n/a	n/a	n/a	j	5	0.03000000000000001	0	f	0	0.6143968748510815
13	14	n/a	n/a	n/a	f	5	0.02000000000000001	2	f	1	0.6170725400152151
13	15	n/a	n/a	n/a	f	5	0.03000000000000001	1	f	1	0.5568174723011907
13	16	n/a	n/a	n/a	f	5	0.02000000000000001	0	f	1	0.6089508912118617
13	17	n/a	n/a	n/a	j	5	0.03000000000000001	0	f	0	0.5644059837795794
13	18	n/a	n/a	n/a	f	5	0.02000000000000001	0	f	1	0.6376371011137962
13	19	n/a	n/a	n/a	f	5	0.03000000000000001	2	f	1	0.5288317535305396
13	20	n/a	n/a	n/a	f	5	0.04000000000000001	0	f	1	0.6437091647530906
13	21	n/a	n/a	n/a	j	5	0.05000000000000002	2	j	1	0.5437610244844109
13	22	n/a	n/a	n/a	f	5	0.06000000000000002	1	f	1	0.5236212626623455
13	23	n/a	n/a	n/a	f	5	0.05000000000000002	0	f	1	0.6505367438367102
13	24	n/a	n/a	n/a	f	5	0.06000000000000002	2	f	1	0.6305090264359023
13	25	n/a	n/a	n/a	j	5	0.07000000000000002	2	f	0	0.5135287162847817
13	26	n/a	n/a	n/a	f	5	0.06000000000000002	0	f	1	0.60552284665755
13	27	n/a	n/a	n/a	f	5	0.07000000000000002	1	f	1	0.5609300424112007
13	28	n/a	n/a	n/a	f	5	0.06000000000000002	1	f	1	0.6453365165798459
13	29	n/a	n/a	n/a	j	5	0.05000000000000002	2	j	1	0.7213613305648323
13	30	n/a	n/a	n/a	f	5	0.06000000000000002	2	f	1	0.5482630413898733
13	31	n/a	n/a	n/a	f	5	0.07000000000000002	1	f	1	0.5833118320151698
13	32	n/a	n/a	n/a	f	5	0.06000000000000002	1	f	1	0.6342686424904969
13	33	n/a	n/a	n/a	j	5	0.05000000000000002	1	f	0	0.5762399220548104
13	34	n/a	n/a	n/a	f	5	0.06000000000000002	1	f	1	0.5872202703903895
13	35	n/a	n/a	n/a	f	5	0.05000000000000002	1	f	1	0.5501663702016231
13	36	n/a	n/a	n/a	f	5	0.04000000000000001	1	f	1	0.6807747540296987
13	37	n/a	n/a	n/a	j	5	0.03000000000000001	2	j	1	0.571989078365732
13	38	n/a	n/a	n/a	f	5	0.04000000000000001	1	f	1	0.544171568704769
13	39	n/a	n/a	n/a	f	5	0.03000000000000001	0	f	1	0.5468817310174927
13	40	n/a	n/a	n/a	f	5	0.04000000000000001	0	f	1	0.6214579509978648
13	41	n/a	n/a	n/a	j	5	0.05000000000000002	1	j	1	0.6010356549231801
13	42	n/a	n/a	n/a	f	5	0.04000000000000001	1	f	1	0.6197077209944837
13	43	n/a	n/a	n/a	f	5	0.03000000000000001	2	f	1	0.5908900799113326
13	44	n/a	n/a	n/a	f	5	0.04000000000000001	1	f	1	0.5648353446740657
13	45	n/a	n/a	n/a	j	5	0.03000000000000001	1	j	1	0.5999770779453684
13	46	n/a	n/a	n/a	f	5	0.02000000000000001	1	f	1	0.60275851530605
13	47	n/a	n/a	n/a	f	5	0.01000000000000001	2	f	1	0.5816762123140506
13	48	n/a	n/a	n/a	f	5	0.02000000000000001	1	f	1	0.6407139022485353
13	49	n/a	n/a	n/a	j	5	0.01000000000000001	2	j	1	0.5316719215479679
13	50	n/a	n/a	n/a	f	5	0.02000000000000001	0	f	1	0.5826178981806152
13	51	n/a	n/a	n/a	f	5	0.03000000000000001	1	f	1	0.5707346375857014
13	52	n/a	n/a	n/a	f	5	0.02000000000000001	1	f	1	0.6065831342129968
13	53	n/a	n/a	n/a	j	5	0.01000000000000001	2	j	1	0.5376459107210394
13	54	n/a	n/a	n/a	f	5	0.02000000000000001	0	f	1	0.5323430473799817
13	55	n/a	n/a	n/a	f	5	0.03000000000000001	0	f	1	0.5591743954864796
13	56	n/a	n/a	n/a	f	5	0.04000000000000001	1	f	1	0.6351245132100303
13	57	n/a	n/a	n/a	j	5	0.03000000000000001	2	j	1	0.4874317861977033
13	58	n/a	n/a	n/a	f	5	0.04000000000000001	0	f	1	0.5623558284132741
13	59	n/a	n/a	n/a	f	5	0.05000000000000002	1	f	1	0.5973230803501792
13	60	n/a	n/a	n/a	f	5	0.04000000000000001	1	f	1	0.4964660407276824
13	61	n/a	n/a	n/a	j	5	0.03000000000000001	0	j	1	0.7392992636596318
13	62	n/a	n/a	n/a	f	5	0.04000000000000001	2	f	1	0.5661738900234923
13	63	n/a	n/a	n/a	f	5	0.05000000000000002	1	f	1	0.5372898205823731
13	64	n/a	n/a	n/a	f	5	0.04000000000000001	0	f	1	0.5801594793447293
13	65	n/a	n/a	n/a	j	5	0.05000000000000002	1	j	1	0.5428621036116965
13	66	n/a	n/a	n/a	f	5	0.04000000000000001	0	f	1	0.5956626569095533
13	67	n/a	n/a	n/a	f	5	0.05000000000000002	1	f	1	0.5190328603493981
13	68	n/a	n/a	n/a	f	5	0.04000000000000001	0	f	1	0.5710873065399937
13	69	n/a	n/a	n/a	j	5	0.05000000000000002	1	j	1	0.5899575172225013
13	70	n/a	n/a	n/a	f	5	0.04000000000000001	1	f	1	0.5369907504937146
13	71	n/a	n/a	n/a	f	5	0.03000000000000001	0	f	1	0.5249133366742171
14	0	f	1	0.08858433220302686	f	1	0.02000000000000001	2	f	1	0.4821753942233045
14	1	n/a	n/a	n/a	j	1	0.03000000000000001	2	j	1	0.3822301049367525
14	2	n/a	n/a	n/a	f	1	0.04000000000000001	1	f	1	0.3620763732178602
14	3	n/a	n/a	n/a	f	1	0.03000000000000001	1	f	1	0.4402371577452868
14	4	n/a	n/a	n/a	f	1	0.02000000000000001	1	j	0	0.4285585990874097
14	5	n/a	n/a	n/a	j	1	0.03000000000000001	1	f	0	0.4321343255287502
14	6	n/a	n/a	n/a	f	1	0.04000000000000001	2	f	1	0.4268827802152373
14	7	n/a	n/a	n/a	f	1	0.05000000000000002	1	f	1	0.4619609361398034
14	8	n/a	n/a	n/a	f	1	0.04000000000000001	2	f	1	0.432691126188729
14	9	n/a	n/a	n/a	j	1	0.05000000000000002	1	j	1	0.4278849073161837
14	10	n/a	n/a	n/a	f	1	0.04000000000000001	1	f	1	0.3988440328103025
14	11	n/a	n/a	n/a	f	1	0.03000000000000001	1	f	1	0.4418913089903072
14	12	n/a	n/a	n/a	f	1	0.02000000000000001	2	f	1	0.4127939846075606
14	13	n/a	n/a	n/a	j	1	0.03000000000000001	2	j	1	0.4250578539504204
14	14	n/a	n/a	n/a	f	1	0.04000000000000001	1	f	1	0.3979801792593207
14	15	n/a	n/a	n/a	f	1	0.03000000000000001	1	f	1	0.457385648478521
14	16	n/a	n/a	n/a	f	1	0.02000000000000001	2	f	1	0.444644521427108
14	17	n/a	n/a	n/a	j	1	0.03000000000000001	2	j	1	0.4078417944838293
14	18	n/a	n/a	n/a	f	1	0.04000000000000001	1	f	1	0.3947645343432669
14	19	n/a	n/a	n/a	f	1	0.03000000000000001	1	f	1	0.4535895395674743
14	20	n/a	n/a	n/a	f	1	0.02000000000000001	2	f	1	0.4416221744031645
14	21	n/a	n/a	n/a	j	1	0.03000000000000001	2	j	1	0.4291655773413368
14	22	n/a	n/a	n/a	f	1	0.04000000000000001	2	f	1	0.4095409915607888
14	23	n/a	n/a	n/a	f	1	0.05000000000000002	1	f	1	0.4145564739301335
14	24	n/a	n/a	n/a	f	1	0.04000000000000001	1	f	1	0.4253637664660346
14	25	n/a	n/a	n/a	j	1	0.03000000000000001	2	j	1	0.4844142859219573
14	26	n/a	n/a	n/a	f	1	0.04000000000000001	2	f	1	0.3834625929885078
14	27	n/a	n/a	n/a	f	1	0.05000000000000002	1	f	1	0.4444070329482201
14	28	n/a	n/a	n/a	f	1	0.04000000000000001	2	f	1	0.4713219154509716
14	29	n/a	n/a	n/a	j	1	0.05000000000000002	2	j	1	0.4418650797451846
14	30	n/a	n/a	n/a	f	1	0.06000000000000002	1	f	1	0.4233583717723377
14	31	n/a	n/a	n/a	f	1	0.05000000000000002	1	f	1	0.4333993150212336
14	32	n/a	n/a	n/a	f	1	0.04000000000000001	2	f	1	0.4042215924127959
14	33	n/a	n/a	n/a	j	1	0.05000000000000002	1	j	1	0.3832179770397488
14	34	n/a	n/a	n/a	f	1	0.04000000000000001	1	f	1	0.362327546463348
14	35	n/a	n/a	n/a	f	1	0.03000000000000001	1	f	1	0.4528288922738284
14	36	n/a	n/a	n/a	f	1	0.02000000000000001	2	f	1	0.4469065062585287
14	37	n/a	n/a	n/a	j	1	0.03000000000000001	2	j	1	0.4341907531197648
14	38	n/a	n/a	n/a	f	1	0.04000000000000001	2	f	1	0.389262956159655
14	39	n/a	n/a	n/a	f	1	0.05000000000000002	1	f	1	0.4330529182916507
14	40	n/a	n/a	n/a	f	1	0.04000000000000001	2	f	1	0.4996631541289389
14	41	n/a	n/a	n/a	j	1	0.05000000000000002	2	j	1	0.470060062041739
14	42	n/a	n/a	n/a	f	1	0.06000000000000002	2	f	1	0.4020505545195192
14	43	n/a	n/a	n/a	f	1	0.07000000000000002	1	f	1	0.4457940453430638
14	44	n/a	n/a	n/a	f	1	0.06000000000000002	2	f	1	0.4497309937432874
14	45	n/a	n/a	n/a	j	1	0.07000000000000002	1	j	1	0.4046298558532726
14	46	n/a	n/a	n/a	f	1	0.06000000000000002	1	f	1	0.4401430746947881
14	47	n/a	n/a	n/a	f	1	0.05000000000000002	2	f	1	0.4349097757949494
14	48	n/a	n/a	n/a	f	1	0.06000000000000002	1	f	1	0.4538558231142815
14	49	n/a	n/a	n/a	j	1	0.05000000000000002	2	j	1	0.3537574350484647
14	50	n/a	n/a	n/a	f	1	0.06000000000000002	1	f	1	0.4446767377376091
14	51	n/a	n/a	n/a	f	1	0.05000000000000002	2	f	1	0.3996930611610878
14	52	n/a	n/a	n/a	f	1	0.06000000000000002	1	f	1	0.4204295376548544
14	53	n/a	n/a	n/a	j	1	0.05000000000000002	1	j	1	0.4009098687092774
14	54	n/a	n/a	n/a	f	1	0.04000000000000001	1	f	1	0.4196204233157914
14	55	n/a	n/a	n/a	f	1	0.03000000000000001	2	f	1	0.4143514868919738
14	56	n/a	n/a	n/a	f	1	0.04000000000000001	1	f	1	0.4496135324588977
14	57	n/a	n/a	n/a	j	1	0.03000000000000001	2	j	1	0.382689686404774
14	58	n/a	n/a	n/a	f	1	0.04000000000000001	1	f	1	0.4010689546121284
14	59	n/a	n/a	n/a	f	1	0.03000000000000001	1	f	1	0.9726078598177992
14	60	n/a	n/a	n/a	f	1	0.02000000000000001	2	f	1	0.4312667656631675
14	61	n/a	n/a	n/a	j	1	0.03000000000000001	2	j	1	0.4345000868197531
14	62	n/a	n/a	n/a	f	1	0.04000000000000001	2	f	1	0.4050084688933566
14	63	n/a	n/a	n/a	f	1	0.05000000000000002	1	f	1	0.4006299003376625
14	64	n/a	n/a	n/a	f	1	0.04000000000000001	1	f	1	0.4115375481196679
14	65	n/a	n/a	n/a	j	1	0.03000000000000001	1	j	1	0.3834511889726855
14	66	n/a	n/a	n/a	f	1	0.02000000000000001	1	f	1	0.4664036522444803
14	67	n/a	n/a	n/a	f	1	0.01000000000000001	2	f	1	0.4054526549880393
14	68	n/a	n/a	n/a	f	1	0.02000000000000001	2	f	1	0.4564006273576524
14	69	n/a	n/a	n/a	j	1	0.03000000000000001	2	j	1	0.4204509201517794
14	70	n/a	n/a	n/a	f	1	0.04000000000000001	1	f	1	0.4709028181969188
14	71	n/a	n/a	n/a	f	1	0.03000000000000001	2	f	1	0.4000491512706503
15	0	j	1	0.05915115983225405	j	2	0.02000000000000001	1	j	1	0.4194784434221219
15	1	n/a	n/a	n/a	f	2	0.01000000000000001	2	f	1	0.3800758879806381
15	2	n/a	n/a	n/a	j	2	0.02000000000000001	1	j	1	0.4235319978033658
15	3	n/a	n/a	n/a	j	2	0.01000000000000001	2	j	1	0.4214972378103994
15	4	n/a	n/a	n/a	j	2	0.02000000000000001	2	j	1	0.3703228959057014
15	5	n/a	n/a	n/a	f	2	0.03000000000000001	1	f	1	0.3591466837679036
15	6	n/a	n/a	n/a	j	2	0.02000000000000001	0	j	1	0.3634391520754434
15	7	n/a	n/a	n/a	j	2	0.03000000000000001	1	j	1	0.416541056270944
15	8	n/a	n/a	n/a	j	2	0.02000000000000001	2	j	1	0.4119255694677122
15	9	n/a	n/a	n/a	f	2	0.03000000000000001	1	f	1	0.3693726570054423
15	10	n/a	n/a	n/a	j	2	0.02000000000000001	1	j	1	0.3725073334644549
15	11	n/a	n/a	n/a	j	2	0.01000000000000001	0	j	1	0.4074121485173237
15	12	n/a	n/a	n/a	j	2	0.02000000000000001	2	j	1	0.4023527607205324
15	13	n/a	n/a	n/a	f	2	0.03000000000000001	1	f	1	0.3553346092521679
15	14	n/a	n/a	n/a	j	2	0.02000000000000001	0	j	1	0.3101633367477916
15	15	n/a	n/a	n/a	j	2	0.03000000000000001	0	j	1	0.4412803392915521
15	16	n/a	n/a	n/a	j	2	0.04000000000000001	2	j	1	0.5001461138308514
15	17	n/a	n/a	n/a	f	2	0.05000000000000002	2	f	1	0.4003422342648264
15	18	n/a	n/a	n/a	j	2	0.06000000000000002	1	j	1	0.4271145666425582
15	19	n/a	n/a	n/a	j	2	0.05000000000000002	1	j	1	0.4071444394357968
15	20	n/a	n/a	n/a	j	2	0.04000000000000001	1	j	1	0.386146811186336
15	21	n/a	n/a	n/a	f	2	0.03000000000000001	1	f	1	0.389052267128136
15	22	n/a	n/a	n/a	j	2	0.02000000000000001	1	j	1	0.3918049093626905
15	23	n/a	n/a	n/a	j	2	0.01000000000000001	1	j	1	0.4120686897367705
15	24	n/a	n/a	n/a	j	2	1.040834085586084e-17	2	j	1	0.4467434289399534
15	25	n/a	n/a	n/a	f	2	0.01000000000000001	2	f	1	0.4017854113772046
15	26	n/a	n/a	n/a	j	2	0.02000000000000001	1	j	1	0.4051501637150068
15	27	n/a	n/a	n/a	j	2	0.01000000000000001	2	j	1	0.4157672943838406
15	28	n/a	n/a	n/a	j	2	0.02000000000000001	2	j	1	0.4120544347679242
15	29	n/a	n/a	n/a	f	2	0.03000000000000001	1	f	1	0.3756862005102448
15	30	n/a	n/a	n/a	j	2	0.02000000000000001	1	j	1	0.4025671560375486
15	31	n/a	n/a	n/a	j	2	0.01000000000000001	2	j	1	0.4127554961014539
15	32	n/a	n/a	n/a	j	2	0.02000000000000001	2	j	1	0.4241871580015868
15	33	n/a	n/a	n/a	f	2	0.03000000000000001	2	f	1	0.3324074229749385
15	34	n/a	n/a	n/a	j	2	0.04000000000000001	0	j	1	0.4959317629982252
15	35	n/a	n/a	n/a	j	2	0.05000000000000002	2	j	1	0.4028970169893
15	36	n/a	n/a	n/a	j	2	0.06000000000000002	1	j	1	0.4226792631670833
15	37	n/a	n/a	n/a	f	2	0.05000000000000002	1	f	1	0.401518272497924
15	38	n/a	n/a	n/a	j	2	0.04000000000000001	1	j	1	0.4117077529372182
15	39	n/a	n/a	n/a	j	2	0.03000000000000001	1	j	1	0.4066897046577651
15	40	n/a	n/a	n/a	j	2	0.02000000000000001	2	j	1	0.3864005503419321
15	41	n/a	n/a	n/a	f	2	0.03000000000000001	1	f	1	0.3906856060493737
15	42	n/a	n/a	n/a	j	2	0.02000000000000001	1	j	1	0.4035578791808803
15	43	n/a	n/a	n/a	j	2	0.01000000000000001	2	j	1	0.3985101805010345
15	44	n/a	n/a	n/a	j	2	0.02000000000000001	1	j	1	0.4336581859970465
15	45	n/a	n/a	n/a	f	2	0.01000000000000001	2	f	1	0.3733352644194383
15	46	n/a	n/a	n/a	j	2	0.02000000000000001	1	j	1	0.4246193698782008
15	47	n/a	n/a	n/a	j	2	0.01000000000000001	2	j	1	0.3789993496902753
15	48	n/a	n/a	n/a	j	2	0.02000000000000001	1	j	1	0.4224258090835065
15	49	n/a	n/a	n/a	f	2	0.01000000000000001	2	f	1	0.3944552006432787
15	50	n/a	n/a	n/a	j	2	0.02000000000000001	1	j	1	0.4063655457575805
15	51	n/a	n/a	n/a	j	2	0.01000000000000001	2	j	1	0.4093545360374264
15	52	n/a	n/a	n/a	j	2	0.02000000000000001	2	j	1	0.4283615948224906
15	53	n/a	n/a	n/a	f	2	0.03000000000000001	2	f	1	0.3913128264539409
15	54	n/a	n/a	n/a	j	2	0.04000000000000001	1	j	1	0.4029919553140644
15	55	n/a	n/a	n/a	j	2	0.03000000000000001	1	j	1	0.4381214292952791
15	56	n/a	n/a	n/a	j	2	0.02000000000000001	2	j	1	0.4102970772364642
15	57	n/a	n/a	n/a	f	2	0.03000000000000001	1	f	1	0.4301223735674284
15	58	n/a	n/a	n/a	j	2	0.02000000000000001	2	j	1	0.4179970629047602
15	59	n/a	n/a	n/a	j	2	0.03000000000000001	2	j	1	0.4047182369104121
15	60	n/a	n/a	n/a	j	2	0.04000000000000001	1	j	1	0.424151805578731
15	61	n/a	n/a	n/a	f	2	0.03000000000000001	2	f	1	0.3871925586718135
15	62	n/a	n/a	n/a	j	2	0.04000000000000001	1	j	1	0.3980882322357502
15	63	n/a	n/a	n/a	j	2	0.03000000000000001	1	j	1	0.4179283537378069
15	64	n/a	n/a	n/a	j	2	0.02000000000000001	2	j	1	0.3809733833477367
15	65	n/a	n/a	n/a	f	2	0.03000000000000001	1	f	1	0.3829890415945556
15	66	n/a	n/a	n/a	j	2	0.02000000000000001	1	j	1	0.3858962081430946
15	67	n/a	n/a	n/a	j	2	0.01000000000000001	1	j	1	0.3649980798654724
15	68	n/a	n/a	n/a	j	2	1.040834085586084e-17	0	j	1	0.4090953799895942
15	69	n/a	n/a	n/a	f	2	0.01000000000000001	2	f	1	0.3959910353005398
15	70	n/a	n/a	n/a	j	2	0.02000000000000001	1	j	1	0.4081534089928027
15	71	n/a	n/a	n/a	j	2	0.01000000000000001	2	j	1	0.3708834028511774
16	0	j	0	0.7494317240489181	j	6	0.14	2	f	0	0.4608416328555904
16	1	n/a	n/a	n/a	f	6	0.15	2	j	0	0.5920427399396431
16	2	n/a	n/a	n/a	j	6	0.14	1	j	1	0.4343033676850609
16	3	n/a	n/a	n/a	j	6	0.13	0	j	1	0.4208899744262453
16	4	n/a	n/a	n/a	j	6	0.14	0	j	1	0.4313636997540016
16	5	n/a	n/a	n/a	f	6	0.15	0	f	1	0.4350084204343148
16	6	n/a	n/a	n/a	j	6	0.16	1	j	1	0.414762886473909
16	7	n/a	n/a	n/a	j	6	0.15	0	j	1	0.426716281712288
16	8	n/a	n/a	n/a	j	6	0.16	0	j	1	0.4616404835542198
16	9	n/a	n/a	n/a	f	6	0.17	1	f	1	0.4166961507871747
16	10	n/a	n/a	n/a	j	6	0.16	0	j	1	0.4515644729835913
16	11	n/a	n/a	n/a	j	6	0.17	1	j	1	0.4318004731903784
16	12	n/a	n/a	n/a	j	6	0.16	1	j	1	0.434355255914852
16	13	n/a	n/a	n/a	f	6	0.15	0	f	1	0.4049631379893981
16	14	n/a	n/a	n/a	j	6	0.16	0	j	1	0.4075484264176339
16	15	n/a	n/a	n/a	j	6	0.17	0	j	1	0.3795059727272019
16	16	n/a	n/a	n/a	j	6	0.18	0	j	1	0.4704161521804053
16	17	n/a	n/a	n/a	f	6	0.1900000000000001	1	f	1	0.4485777634836268
16	18	n/a	n/a	n/a	j	6	0.18	1	j	1	0.4194060279987752
16	19	n/a	n/a	n/a	j	6	0.17	1	j	1	0.4140977477363776
16	20	n/a	n/a	n/a	j	6	0.16	0	j	1	0.4355914503103122
16	21	n/a	n/a	n/a	f	6	0.17	1	f	1	0.3845479694136884
16	22	n/a	n/a	n/a	j	6	0.16	0	j	1	0.468340622872347
16	23	n/a	n/a	n/a	j	6	0.17	1	j	1	0.4162813300208654
16	24	n/a	n/a	n/a	j	6	0.16	0	j	1	0.3952463536406867
16	25	n/a	n/a	n/a	f	6	0.17	0	f	1	0.3831786332302727
16	26	n/a	n/a	n/a	j	6	0.18	0	j	1	0.4182756057707593
16	27	n/a	n/a	n/a	j	6	0.1900000000000001	1	j	1	0.4531995225115679
16	28	n/a	n/a	n/a	j	6	0.18	1	j	1	0.4321645461313892
16	29	n/a	n/a	n/a	f	6	0.17	1	f	1	0.4108373420895077
16	30	n/a	n/a	n/a	j	6	0.16	0	j	1	0.4397935418528505
16	31	n/a	n/a	n/a	j	6	0.17	1	j	1	0.4269206985482015
16	32	n/a	n/a	n/a	j	6	0.16	0	j	1	0.453769152663881
16	33	n/a	n/a	n/a	f	6	0.17	1	f	1	0.4008708100009244
16	34	n/a	n/a	n/a	j	6	0.16	0	j	1	0.4591755073633976
16	35	n/a	n/a	n/a	j	6	0.17	1	j	1	0.4305334880191367
16	36	n/a	n/a	n/a	j	6	0.16	1	j	1	0.4336767174827401
16	37	n/a	n/a	n/a	f	6	0.15	0	f	1	0.4209073655365501
16	38	n/a	n/a	n/a	j	6	0.16	0	j	1	0.464649430825375
16	39	n/a	n/a	n/a	j	6	0.17	1	j	1	0.4508522927353624
16	40	n/a	n/a	n/a	j	6	0.16	1	j	1	0.4378403205191717
16	41	n/a	n/a	n/a	f	6	0.15	1	f	1	0.4417727073014248
16	42	n/a	n/a	n/a	j	6	0.14	0	j	1	0.4613562386657577
16	43	n/a	n/a	n/a	j	6	0.15	1	j	1	0.4567242160555907
16	44	n/a	n/a	n/a	j	6	0.14	1	j	1	0.4599837663990911
16	45	n/a	n/a	n/a	f	6	0.13	1	f	1	0.4148655225289986
16	46	n/a	n/a	n/a	j	6	0.12	0	j	1	0.4572545023693237
16	47	n/a	n/a	n/a	j	6	0.13	0	j	1	0.4537691526929848
16	48	n/a	n/a	n/a	j	6	0.14	1	j	1	0.4483593767508864
16	49	n/a	n/a	n/a	f	6	0.13	0	f	1	0.4436201564676594
16	50	n/a	n/a	n/a	j	6	0.14	0	j	1	0.4545392082654871
16	51	n/a	n/a	n/a	j	6	0.15	1	j	1	0.4652869148412719
16	52	n/a	n/a	n/a	j	6	0.14	1	j	1	0.4040790423168801
16	53	n/a	n/a	n/a	f	6	0.13	0	f	1	0.3837200384587049
16	54	n/a	n/a	n/a	j	6	0.14	0	j	1	0.4585055219649803
16	55	n/a	n/a	n/a	j	6	0.15	1	j	1	0.4706416664121207
16	56	n/a	n/a	n/a	j	6	0.14	1	j	1	0.4175326347176451
16	57	n/a	n/a	n/a	f	6	0.13	0	f	1	0.3984725472691935
16	58	n/a	n/a	n/a	j	6	0.14	0	j	1	0.4354352153895888
16	59	n/a	n/a	n/a	j	6	0.15	0	j	1	0.4384145122603513
16	60	n/a	n/a	n/a	j	6	0.16	1	j	1	0.4432181652227882
16	61	n/a	n/a	n/a	f	6	0.15	1	f	1	0.4164290119078942
16	62	n/a	n/a	n/a	j	6	0.14	0	j	1	0.4673268066253513
16	63	n/a	n/a	n/a	j	6	0.15	1	j	1	0.4383061742119025
16	64	n/a	n/a	n/a	j	6	0.14	0	j	1	0.4422362802142743
16	65	n/a	n/a	n/a	f	6	0.15	1	f	1	0.4222336515667848
16	66	n/a	n/a	n/a	j	6	0.14	0	j	1	0.4813024174654856
16	67	n/a	n/a	n/a	j	6	0.15	1	j	1	0.3972990749171004
16	68	n/a	n/a	n/a	j	6	0.14	0	j	1	0.4491300025256351
16	69	n/a	n/a	n/a	f	6	0.15	1	f	1	0.4919206885388121
16	70	n/a	n/a	n/a	j	6	0.14	1	j	1	0.4390787956945132
16	71	n/a	n/a	n/a	j	6	0.13	0	j	1	0.4100915199960582
17	0	f	1	0.6116912741563283	f	7	0.08000000000000002	0	f	1	0.5027023220609408
17	1	n/a	n/a	n/a	f	7	0.09000000000000001	1	f	1	0.5049802724970505
17	2	n/a	n/a	n/a	j	7	0.08000000000000002	1	f	0	0.5096088738937397
17	3	n/a	n/a	n/a	f	7	0.09000000000000001	1	f	1	0.5290199196606409
17	4	n/a	n/a	n/a	f	7	0.08000000000000002	1	f	1	0.4758361917047296
17	5	n/a	n/a	n/a	f	7	0.07000000000000002	0	f	1	0.4308131712896284
17	6	n/a	n/a	n/a	f	7	0.08000000000000002	0	f	1	0.5458046225539874
17	7	n/a	n/a	n/a	f	7	0.09000000000000001	1	f	1	0.4857995876809582
17	8	n/a	n/a	n/a	j	7	0.08000000000000002	0	j	1	0.4334683092602063
17	9	n/a	n/a	n/a	f	7	0.09000000000000001	0	f	1	0.484702807298163
17	10	n/a	n/a	n/a	f	7	0.1	1	f	1	0.4810047728824429
17	11	n/a	n/a	n/a	f	7	0.09000000000000001	0	f	1	0.4836881357477978
17	12	n/a	n/a	n/a	f	7	0.1	0	f	1	0.558625292556826
17	13	n/a	n/a	n/a	f	7	0.11	1	f	1	0.5375752058753278
17	14	n/a	n/a	n/a	j	7	0.1	1	j	1	0.4690425395092461
17	15	n/a	n/a	n/a	f	7	0.09000000000000001	0	f	1	0.5275713256560266
17	16	n/a	n/a	n/a	f	7	0.1	1	f	1	0.4369824540917762
17	17	n/a	n/a	n/a	f	7	0.09000000000000001	0	f	1	0.4555344929976854
17	18	n/a	n/a	n/a	f	7	0.1	0	f	1	0.5225324650818948
17	19	n/a	n/a	n/a	f	7	0.11	1	f	1	0.4544328658957966
17	20	n/a	n/a	n/a	j	7	0.1	0	j	1	0.4811259404523298
17	21	n/a	n/a	n/a	f	7	0.11	1	f	1	0.4939979284536093
17	22	n/a	n/a	n/a	f	7	0.1	1	f	1	0.4744038484059274
17	23	n/a	n/a	n/a	f	7	0.09000000000000001	0	f	1	0.4542980135011021
17	24	n/a	n/a	n/a	f	7	0.1	0	f	1	0.5292947562411427
17	25	n/a	n/a	n/a	f	7	0.11	1	f	1	0.4522130758850835
17	26	n/a	n/a	n/a	j	7	0.1	1	f	0	0.4641402419074439
17	27	n/a	n/a	n/a	f	7	0.11	0	f	1	0.4912167762231547
17	28	n/a	n/a	n/a	f	7	0.12	1	f	1	0.478011791157769
17	29	n/a	n/a	n/a	f	7	0.11	1	f	1	0.3781520319462288
17	30	n/a	n/a	n/a	f	7	0.1	0	f	1	0.5091202121984679
17	31	n/a	n/a	n/a	f	7	0.11	1	f	1	0.473252898955252
17	32	n/a	n/a	n/a	j	7	0.1	1	f	0	0.4369499526510481
17	33	n/a	n/a	n/a	f	7	0.11	0	f	1	0.5363310286775231
17	34	n/a	n/a	n/a	f	7	0.12	1	f	1	0.4188646227412391
17	35	n/a	n/a	n/a	f	7	0.11	0	f	1	0.4136954713612795
17	36	n/a	n/a	n/a	f	7	0.12	0	f	1	0.489995977259241
17	37	n/a	n/a	n/a	f	7	0.13	1	f	1	0.437887076928746
17	38	n/a	n/a	n/a	j	7	0.12	0	j	1	0.4811216639354825
17	39	n/a	n/a	n/a	f	7	0.13	1	f	1	0.4919300968467724
17	40	n/a	n/a	n/a	f	7	0.12	1	f	1	0.4548824688536115
17	41	n/a	n/a	n/a	f	7	0.11	0	f	1	0.3858044058724772
17	42	n/a	n/a	n/a	f	7	0.12	0	f	1	0.5099966101697646
17	43	n/a	n/a	n/a	f	7	0.13	1	f	1	0.4189943433157168
17	44	n/a	n/a	n/a	j	7	0.12	0	j	1	0.4052730418625288
17	45	n/a	n/a	n/a	f	7	0.13	0	f	1	0.4416552460461389
17	46	n/a	n/a	n/a	f	7	0.14	0	f	1	0.573646365723107
17	47	n/a	n/a	n/a	f	7	0.15	1	f	1	0.5216386760002933
17	48	n/a	n/a	n/a	f	7	0.14	1	f	1	0.4685225168068428
17	49	n/a	n/a	n/a	f	7	0.13	1	f	1	0.5355672452715226
17	50	n/a	n/a	n/a	j	7	0.12	1	f	0	0.4733073530951515
17	51	n/a	n/a	n/a	f	7	0.11	0	f	1	0.5245666548726149
17	52	n/a	n/a	n/a	f	7	0.12	1	f	1	0.4804094836872537
17	53	n/a	n/a	n/a	f	7	0.11	1	f	1	0.4603720728482585
17	54	n/a	n/a	n/a	f	7	0.1	0	f	1	0.4794817676884122
17	55	n/a	n/a	n/a	f	7	0.11	1	f	1	0.4662094990198966
17	56	n/a	n/a	n/a	j	7	0.1	0	j	1	0.4774592670437414
17	57	n/a	n/a	n/a	f	7	0.11	1	f	1	0.520682735106675
17	58	n/a	n/a	n/a	f	7	0.1	1	f	1	0.5001558072399348
17	59	n/a	n/a	n/a	f	7	0.09000000000000002	1	f	1	0.4393234116723761
17	60	n/a	n/a	n/a	f	7	0.08000000000000003	0	f	1	0.4992660095740575
17	61	n/a	n/a	n/a	f	7	0.09000000000000002	1	f	1	0.5018618467147462
17	62	n/a	n/a	n/a	j	7	0.08000000000000003	0	j	1	0.4711856375797652
17	63	n/a	n/a	n/a	f	7	0.09000000000000002	0	f	1	0.5062295814859681
17	64	n/a	n/a	n/a	f	7	0.1	1	f	1	0.4851803501078393
17	65	n/a	n/a	n/a	f	7	0.09000000000000002	0	f	1	0.4323239171353634
17	66	n/a	n/a	n/a	f	7	0.1	0	f	1	0.5223425883450545
17	67	n/a	n/a	n/a	f	7	0.11	1	f	1	0.5086882854229771
17	68	n/a	n/a	n/a	j	7	0.1	1	j	1	0.4643321143521462
17	69	n/a	n/a	n/a	f	7	0.09000000000000002	0	f	1	0.4928124819125514
17	70	n/a	n/a	n/a	f	7	0.1	1	f	1	0.4717572634399403
17	71	n/a	n/a	n/a	f	7	0.09000000000000002	0	f	1	0.4189384636993054
18	0	j	1	0.5528987703146413	j	12	0.4200000000000003	0	j	1	0.8823976012936328
18	1	n/a	n/a	n/a	j	12	0.4300000000000003	1	j	1	0.7798174161580391
18	2	n/a	n/a	n/a	f	12	0.4200000000000003	1	f	1	0.7442645684059244
18	3	n/a	n/a	n/a	j	12	0.4100000000000003	1	j	1	0.6751175111858174
18	4	n/a	n/a	n/a	j	12	0.4000000000000002	1	j	1	0.6540748370753136
18	5	n/a	n/a	n/a	j	12	0.3900000000000002	1	j	1	0.6323698752967175
18	6	n/a	n/a	n/a	j	12	0.3800000000000002	1	j	1	0.7069900006754324
18	7	n/a	n/a	n/a	j	12	0.3700000000000002	1	j	1	0.6617123858013656
18	8	n/a	n/a	n/a	f	12	0.3600000000000002	1	f	1	0.5690514061425347
18	9	n/a	n/a	n/a	j	12	0.3500000000000002	0	j	1	0.5647723375295755
18	10	n/a	n/a	n/a	j	12	0.3600000000000002	0	j	1	0.6079721422865987
18	11	n/a	n/a	n/a	j	12	0.3700000000000002	0	j	1	0.6839952456648462
18	12	n/a	n/a	n/a	j	12	0.3800000000000002	1	j	1	0.6467098441207781
18	13	n/a	n/a	n/a	j	12	0.3700000000000002	1	j	1	0.584965698159067
18	14	n/a	n/a	n/a	f	12	0.3600000000000002	0	f	1	0.5636538895196281
18	15	n/a	n/a	n/a	j	12	0.3700000000000002	0	j	1	0.5986359666858334
18	16	n/a	n/a	n/a	j	12	0.3800000000000002	0	j	1	0.553536254359642
18	17	n/a	n/a	n/a	j	12	0.3900000000000002	0	j	1	0.6601987889735028
18	18	n/a	n/a	n/a	j	12	0.4000000000000002	1	j	1	0.623574249621015
18	19	n/a	n/a	n/a	j	12	0.3900000000000002	1	j	1	0.5781250044528861
18	20	n/a	n/a	n/a	f	12	0.3800000000000002	0	f	1	0.5252560270891991
18	21	n/a	n/a	n/a	j	12	0.3900000000000002	0	j	1	0.5518102578644175
18	22	n/a	n/a	n/a	j	12	0.4000000000000002	0	j	1	0.546438115183264
18	23	n/a	n/a	n/a	j	12	0.4100000000000003	0	j	1	0.5094438008964062
18	24	n/a	n/a	n/a	j	12	0.4200000000000003	0	j	1	0.5929715963138733
18	25	n/a	n/a	n/a	j	12	0.4300000000000003	1	j	1	0.757306761253858
18	26	n/a	n/a	n/a	f	12	0.4200000000000003	1	j	0	0.584485589468386
18	27	n/a	n/a	n/a	j	12	0.4100000000000003	1	j	1	0.667227363679558
18	28	n/a	n/a	n/a	j	12	0.4000000000000002	1	j	1	0.5743163511506282
18	29	n/a	n/a	n/a	j	12	0.3900000000000002	0	j	1	0.7057706272171345
18	30	n/a	n/a	n/a	j	12	0.4000000000000002	1	j	1	0.5830914495745674
18	31	n/a	n/a	n/a	j	12	0.3900000000000002	0	j	1	0.5871375913266093
18	32	n/a	n/a	n/a	f	12	0.4000000000000002	0	f	1	0.5739887710369658
18	33	n/a	n/a	n/a	j	12	0.4100000000000003	1	j	1	0.6731645749241579
18	34	n/a	n/a	n/a	j	12	0.4000000000000002	1	j	1	0.6759451569814701
18	35	n/a	n/a	n/a	j	12	0.3900000000000002	1	f	0	0.6720056427002419
18	36	n/a	n/a	n/a	j	12	0.3800000000000002	1	f	0	0.7228914631996304
18	37	n/a	n/a	n/a	j	12	0.3700000000000002	1	j	1	0.4939061262120958
18	38	n/a	n/a	n/a	f	12	0.3600000000000002	1	j	0	0.6650409304129425
18	39	n/a	n/a	n/a	j	12	0.3700000000000002	1	j	1	0.699757294205483
18	40	n/a	n/a	n/a	j	12	0.3600000000000002	1	j	1	0.6559530770755373
18	41	n/a	n/a	n/a	j	12	0.3500000000000002	1	j	1	0.5546720934507903
18	42	n/a	n/a	n/a	j	12	0.3400000000000002	0	j	1	0.7027690925169736
18	43	n/a	n/a	n/a	j	12	0.3500000000000002	1	j	1	0.5617069403815549
18	44	n/a	n/a	n/a	f	12	0.3400000000000002	0	f	1	0.6446662460512016
18	45	n/a	n/a	n/a	j	12	0.3500000000000002	1	j	1	0.5917322658351623
18	46	n/a	n/a	n/a	j	12	0.3400000000000002	0	j	1	0.5802187801746186
18	47	n/a	n/a	n/a	j	12	0.3500000000000002	0	j	1	0.6155384159646928
18	48	n/a	n/a	n/a	j	12	0.3600000000000002	0	j	1	0.6354857351398095
18	49	n/a	n/a	n/a	j	12	0.3700000000000002	1	j	1	0.6314832137431949
18	50	n/a	n/a	n/a	f	12	0.3600000000000002	1	f	1	0.6503705304348841
18	51	n/a	n/a	n/a	j	12	0.3500000000000002	1	j	1	0.623520935914712
18	52	n/a	n/a	n/a	j	12	0.3400000000000002	0	j	1	0.6942990512761753
18	53	n/a	n/a	n/a	j	12	0.3500000000000002	0	f	0	0.7853047393145971
18	54	n/a	n/a	n/a	j	12	0.3400000000000002	1	j	1	0.7972664024564438
18	55	n/a	n/a	n/a	j	12	0.3300000000000002	1	j	1	0.6883549976337235
18	56	n/a	n/a	n/a	f	12	0.3200000000000002	1	j	0	0.5311644432076719
18	57	n/a	n/a	n/a	j	12	0.3100000000000002	0	j	1	0.6471001462778077
18	58	n/a	n/a	n/a	j	12	0.3200000000000002	0	j	1	0.6021221716946457
18	59	n/a	n/a	n/a	j	12	0.3300000000000002	0	j	1	0.4861314442823641
18	60	n/a	n/a	n/a	j	12	0.3400000000000002	0	j	1	0.6580035175720695
18	61	n/a	n/a	n/a	j	12	0.3500000000000002	1	j	1	0.5589939270867035
18	62	n/a	n/a	n/a	f	12	0.3400000000000002	0	f	1	0.5380727056763135
18	63	n/a	n/a	n/a	j	12	0.3500000000000002	0	j	1	0.660768419096712
18	64	n/a	n/a	n/a	j	12	0.3600000000000002	1	j	1	0.5355438670667354
18	65	n/a	n/a	n/a	j	12	0.3500000000000002	0	j	1	0.5947785612661391
18	66	n/a	n/a	n/a	j	12	0.3600000000000002	0	j	1	0.6774864085600711
18	67	n/a	n/a	n/a	j	12	0.3700000000000002	1	j	1	0.6010308082040865
18	68	n/a	n/a	n/a	f	12	0.3600000000000002	0	f	1	0.8917984946165234
18	69	n/a	n/a	n/a	j	12	0.3700000000000002	1	j	1	0.6222978561127093
18	70	n/a	n/a	n/a	j	12	0.3600000000000002	0	j	1	0.609719236206729
18	71	n/a	n/a	n/a	j	12	0.3700000000000002	0	j	1	0.7965838726377115
19	0	j	1	0.3394411295012105	j	4	0.08000000000000002	2	j	1	0.3857724746630993
19	1	n/a	n/a	n/a	j	4	0.09000000000000001	1	j	1	0.3967360020906199
19	2	n/a	n/a	n/a	f	4	0.08000000000000002	1	j	0	0.456928062660154
19	3	n/a	n/a	n/a	j	4	0.07000000000000002	2	j	1	0.4197669648274314
19	4	n/a	n/a	n/a	j	4	0.08000000000000002	1	j	1	0.3907497535983566
19	5	n/a	n/a	n/a	j	4	0.07000000000000002	1	j	1	0.3853317097818945
19	6	n/a	n/a	n/a	j	4	0.06000000000000002	1	j	1	0.4446262750134338
19	7	n/a	n/a	n/a	j	4	0.05000000000000002	2	j	1	0.4234869519714266
19	8	n/a	n/a	n/a	f	4	0.06000000000000002	1	f	1	0.3785548784944694
19	9	n/a	n/a	n/a	j	4	0.05000000000000002	1	j	1	0.4066899897588883
19	10	n/a	n/a	n/a	j	4	0.04000000000000001	1	j	1	0.3546620579436421
19	11	n/a	n/a	n/a	j	4	0.03000000000000001	0	j	1	0.3982302121003158
19	12	n/a	n/a	n/a	j	4	0.04000000000000001	1	j	1	0.4252423137659207
19	13	n/a	n/a	n/a	j	4	0.03000000000000001	2	j	1	0.3964588847011328
19	14	n/a	n/a	n/a	f	4	0.04000000000000001	1	f	1	0.3925800967554096
19	15	n/a	n/a	n/a	j	4	0.03000000000000001	1	j	1	0.4432161695149262
19	16	n/a	n/a	n/a	j	4	0.02000000000000001	2	j	1	0.3933396036445629
19	17	n/a	n/a	n/a	j	4	0.03000000000000001	1	j	1	0.4281819817260839
19	18	n/a	n/a	n/a	j	4	0.02000000000000001	2	j	1	0.4553762623982038
19	19	n/a	n/a	n/a	j	4	0.03000000000000001	2	j	1	0.4089907481975388
19	20	n/a	n/a	n/a	f	4	0.04000000000000001	1	f	1	0.4052220089361072
19	21	n/a	n/a	n/a	j	4	0.03000000000000001	1	j	1	0.4164022124896292
19	22	n/a	n/a	n/a	j	4	0.02000000000000001	2	j	1	0.4032485455099959
19	23	n/a	n/a	n/a	j	4	0.03000000000000001	1	j	1	0.3743399574304931
19	24	n/a	n/a	n/a	j	4	0.02000000000000001	1	j	1	0.4572083161619958
19	25	n/a	n/a	n/a	j	4	0.01000000000000001	2	j	1	0.3957133477379102
19	26	n/a	n/a	n/a	f	4	0.02000000000000001	2	j	0	0.3895634517539293
19	27	n/a	n/a	n/a	j	4	0.01000000000000001	1	j	1	0.4652452901937068
19	28	n/a	n/a	n/a	j	4	1.040834085586084e-17	2	j	1	0.3970972239912953
19	29	n/a	n/a	n/a	j	4	0.01000000000000001	2	j	1	0.3602297793549951
19	30	n/a	n/a	n/a	j	4	0.02000000000000001	0	j	1	0.4030572432675399
19	31	n/a	n/a	n/a	j	4	0.03000000000000001	1	j	1	0.3905624427716248
19	32	n/a	n/a	n/a	f	4	0.02000000000000001	1	f	1	0.4097790502128191
19	33	n/a	n/a	n/a	j	4	0.01000000000000001	2	j	1	0.3897778470709454
19	34	n/a	n/a	n/a	j	4	0.02000000000000001	1	j	1	0.3619999663496856
19	35	n/a	n/a	n/a	j	4	0.01000000000000001	0	j	1	0.4217792018898763
19	36	n/a	n/a	n/a	j	4	0.02000000000000001	2	j	1	0.4175950716598891
19	37	n/a	n/a	n/a	j	4	0.03000000000000001	2	j	1	0.4044319963431917
19	38	n/a	n/a	n/a	f	4	0.04000000000000001	1	f	1	0.416787953057792
19	39	n/a	n/a	n/a	j	4	0.03000000000000001	2	j	1	0.451795974309789
19	40	n/a	n/a	n/a	j	4	0.04000000000000001	2	j	1	0.2878143336565699
19	41	n/a	n/a	n/a	j	4	0.05000000000000002	0	j	1	0.5641816099523567
19	42	n/a	n/a	n/a	j	4	0.06000000000000002	2	j	1	0.4788037994876504
19	43	n/a	n/a	n/a	j	4	0.07000000000000002	2	j	1	0.3309736541705206
19	44	n/a	n/a	n/a	f	4	0.08000000000000002	1	f	1	0.4627067582041491
19	45	n/a	n/a	n/a	j	4	0.07000000000000002	2	j	1	0.3852222312998492
19	46	n/a	n/a	n/a	j	4	0.08000000000000002	1	j	1	0.3723502432694659
19	47	n/a	n/a	n/a	j	4	0.07000000000000002	1	j	1	0.3755867005384061
19	48	n/a	n/a	n/a	j	4	0.06000000000000002	1	j	1	0.4344313776819035
19	49	n/a	n/a	n/a	j	4	0.05000000000000002	1	j	1	0.3576148404972628
19	50	n/a	n/a	n/a	f	4	0.04000000000000001	1	f	1	0.4884555809549056
19	51	n/a	n/a	n/a	j	4	0.03000000000000001	2	j	1	0.3715491117909551
19	52	n/a	n/a	n/a	j	4	0.04000000000000001	1	j	1	0.406703959684819
19	53	n/a	n/a	n/a	j	4	0.03000000000000001	1	j	1	0.3680888508970384
19	54	n/a	n/a	n/a	j	4	0.02000000000000001	1	j	1	0.4274310278706253
19	55	n/a	n/a	n/a	j	4	0.01000000000000001	2	j	1	0.376577423652634
19	56	n/a	n/a	n/a	f	4	0.02000000000000001	2	j	0	0.4590654587082099
19	57	n/a	n/a	n/a	j	4	0.01000000000000001	2	j	1	0.409337715129368
19	58	n/a	n/a	n/a	j	4	0.02000000000000001	2	j	1	0.3718142549623735
19	59	n/a	n/a	n/a	j	4	0.03000000000000001	1	j	1	0.3834135557699483
19	60	n/a	n/a	n/a	j	4	0.02000000000000001	1	j	1	0.3792884412687272
19	61	n/a	n/a	n/a	j	4	0.01000000000000001	1	j	1	0.4059837966342457
19	62	n/a	n/a	n/a	f	4	1.040834085586084e-17	2	f	1	0.3609627718979027
19	63	n/a	n/a	n/a	j	4	0.01000000000000001	0	j	1	0.4202824259409681
19	64	n/a	n/a	n/a	j	4	0.02000000000000001	2	j	1	0.3604085371480323
19	65	n/a	n/a	n/a	j	4	0.03000000000000001	1	j	1	0.3952554768475238
19	66	n/a	n/a	n/a	j	4	0.02000000000000001	1	j	1	0.3979453970387112
19	67	n/a	n/a	n/a	j	4	0.01000000000000001	2	j	1	0.4003294047433883
19	68	n/a	n/a	n/a	f	4	0.02000000000000001	2	j	0	0.395189618691802
19	69	n/a	n/a	n/a	j	4	0.01000000000000001	1	j	1	0.4300653535174206
19	70	n/a	n/a	n/a	j	4	1.040834085586084e-17	2	j	1	0.3698633144085761
19	71	n/a	n/a	n/a	j	4	0.01000000000000001	0	j	1	0.3418690426333342
20	0	j	1	0.2911668266460765	j	10	0.14	0	j	1	0.7604910451627802
20	1	n/a	n/a	n/a	f	10	0.15	0	f	1	0.7783639754343312
20	2	n/a	n/a	n/a	j	10	0.16	0	j	1	0.7260728961264249
20	3	n/a	n/a	n/a	j	10	0.17	0	j	1	0.7132305585255381
20	4	n/a	n/a	n/a	j	10	0.18	0	j	1	0.7222622471163049
20	5	n/a	n/a	n/a	f	10	0.1900000000000001	0	f	1	0.7332180768135004
20	6	n/a	n/a	n/a	j	10	0.2000000000000001	0	j	1	0.8323593835812062
20	7	n/a	n/a	n/a	j	10	0.2100000000000001	1	j	1	0.9796871823782567
20	8	n/a	n/a	n/a	j	10	0.2000000000000001	1	f	0	0.8549592748750001
20	9	n/a	n/a	n/a	f	10	0.1900000000000001	1	j	0	1.010018420318374
20	10	n/a	n/a	n/a	j	10	0.18	1	j	1	0.7419817712507211
20	11	n/a	n/a	n/a	j	10	0.17	0	j	1	0.7687335764640011
20	12	n/a	n/a	n/a	j	10	0.18	0	j	1	0.7715024693752639
20	13	n/a	n/a	n/a	f	10	0.1900000000000001	0	f	1	0.9908194891177118
20	14	n/a	n/a	n/a	j	10	0.2000000000000001	1	j	1	0.9454965433105826
20	15	n/a	n/a	n/a	j	10	0.1900000000000001	1	j	1	1.196555191563675
20	16	n/a	n/a	n/a	j	10	0.18	2	j	1	0.8807454457273707
20	17	n/a	n/a	n/a	f	10	0.1900000000000001	2	j	0	0.9644465820456389
20	18	n/a	n/a	n/a	j	10	0.18	1	j	1	0.8154349816322792
20	19	n/a	n/a	n/a	j	10	0.17	1	j	1	0.7624804741935804
20	20	n/a	n/a	n/a	j	10	0.16	0	j	1	0.8303651078604162
20	21	n/a	n/a	n/a	f	10	0.17	0	j	0	0.785390269360505
20	22	n/a	n/a	n/a	j	10	0.16	0	j	1	0.7646298444597051
20	23	n/a	n/a	n/a	j	10	0.17	0	j	1	0.7830199464806356
20	24	n/a	n/a	n/a	j	10	0.18	0	j	1	0.8914261537720449
20	25	n/a	n/a	n/a	f	10	0.1900000000000001	1	f	1	0.9262537066533696
20	26	n/a	n/a	n/a	j	10	0.18	1	j	1	0.8502203396637924
20	27	n/a	n/a	n/a	j	10	0.17	1	j	1	0.9007666058896575
20	28	n/a	n/a	n/a	j	10	0.16	1	j	1	0.9361962903349195
20	29	n/a	n/a	n/a	f	10	0.15	1	f	1	1.15455508834566
20	30	n/a	n/a	n/a	j	10	0.14	2	j	1	1.029565173754236
20	31	n/a	n/a	n/a	j	10	0.15	1	j	1	0.9606339373567607
20	32	n/a	n/a	n/a	j	10	0.14	1	j	1	0.980909121746663
20	33	n/a	n/a	n/a	f	10	0.13	1	f	1	0.9999301504576579
20	34	n/a	n/a	n/a	j	10	0.12	1	j	1	0.9865877471165732
20	35	n/a	n/a	n/a	j	10	0.11	1	j	1	1.309364486049162
20	36	n/a	n/a	n/a	j	10	0.1	1	f	0	1.088249624590389
20	37	n/a	n/a	n/a	f	10	0.11	1	j	0	0.73939961893484
20	38	n/a	n/a	n/a	j	10	0.1	0	j	1	0.7416370851278771
20	39	n/a	n/a	n/a	j	10	0.11	0	j	1	0.7864217618189286
20	40	n/a	n/a	n/a	j	10	0.12	0	j	1	0.8373799977707677
20	41	n/a	n/a	n/a	f	10	0.13	0	j	0	0.7760706295957789
20	42	n/a	n/a	n/a	j	10	0.14	0	j	1	0.7555961601610761
20	43	n/a	n/a	n/a	j	10	0.15	0	j	1	0.7754194607550744
20	44	n/a	n/a	n/a	j	10	0.16	0	j	1	1.07413602527231
20	45	n/a	n/a	n/a	f	10	0.17	1	f	1	0.9651445072959177
20	46	n/a	n/a	n/a	j	10	0.16	1	j	1	1.041228622110793
20	47	n/a	n/a	n/a	j	10	0.15	1	j	1	0.8920539443788584
20	48	n/a	n/a	n/a	j	10	0.14	1	j	1	0.8807240632304456
20	49	n/a	n/a	n/a	f	10	0.13	1	f	1	0.9867613731476013
20	50	n/a	n/a	n/a	j	10	0.12	1	j	1	0.9016412932251114
20	51	n/a	n/a	n/a	j	10	0.11	1	j	1	0.9129452302586287
20	52	n/a	n/a	n/a	j	10	0.1	1	j	1	0.8676567815709859
20	53	n/a	n/a	n/a	f	10	0.09000000000000002	0	f	1	0.9586735885241069
20	54	n/a	n/a	n/a	j	10	0.1	1	j	1	0.9776512820099015
20	55	n/a	n/a	n/a	j	10	0.09000000000000002	1	j	1	0.9642187870340422
20	56	n/a	n/a	n/a	j	10	0.08000000000000003	1	j	1	0.9595576841675211
20	57	n/a	n/a	n/a	f	10	0.07000000000000003	1	j	0	1.099198896990856
20	58	n/a	n/a	n/a	j	10	0.06000000000000003	2	j	1	0.8961394299403764
20	59	n/a	n/a	n/a	j	10	0.07000000000000003	0	j	1	1.139299092610599
20	60	n/a	n/a	n/a	j	10	0.08000000000000003	2	j	1	0.8789775395125616
20	61	n/a	n/a	n/a	f	10	0.09000000000000002	2	j	0	1.258298482222017
20	62	n/a	n/a	n/a	j	10	0.1	2	j	1	0.860671256959904
20	63	n/a	n/a	n/a	j	10	0.11	0	j	1	0.8643125564558432
20	64	n/a	n/a	n/a	j	10	0.12	0	j	1	0.8760766451887321
20	65	n/a	n/a	n/a	f	10	0.13	1	f	1	0.9284293061355129
20	66	n/a	n/a	n/a	j	10	0.12	1	j	1	0.9380215016717557
20	67	n/a	n/a	n/a	j	10	0.11	1	j	1	0.8538961362792179
20	68	n/a	n/a	n/a	j	10	0.1	0	j	1	0.9130612660082988
20	69	n/a	n/a	n/a	f	10	0.11	1	f	1	0.923767062893603
20	70	n/a	n/a	n/a	j	10	0.1	1	j	1	0.9105024919263087
20	71	n/a	n/a	n/a	j	10	0.09000000000000002	1	j	1	0.8986514476418961
21	0	f	1	0.1265702248783782	f	3	0.04000000000000001	2	f	1	0.4031510412460193
21	1	n/a	n/a	n/a	f	3	0.05000000000000002	1	f	1	0.4285480503749568
21	2	n/a	n/a	n/a	j	3	0.04000000000000001	2	j	1	0.4073921914969105
21	3	n/a	n/a	n/a	f	3	0.05000000000000002	1	f	1	0.4330437950848136
21	4	n/a	n/a	n/a	f	3	0.04000000000000001	2	f	1	0.460860164341284
21	5	n/a	n/a	n/a	f	3	0.05000000000000002	2	f	1	0.3849984276748728
21	6	n/a	n/a	n/a	f	3	0.06000000000000002	1	f	1	0.4037942272261716
21	7	n/a	n/a	n/a	f	3	0.05000000000000002	1	f	1	0.4387503603065852
21	8	n/a	n/a	n/a	j	3	0.04000000000000001	2	j	1	0.3937783728179056
21	9	n/a	n/a	n/a	f	3	0.05000000000000002	1	f	1	0.4367378381430171
21	10	n/a	n/a	n/a	f	3	0.04000000000000001	2	f	1	0.4249115975690074
21	11	n/a	n/a	n/a	f	3	0.05000000000000002	1	f	1	0.4282928856846411
21	12	n/a	n/a	n/a	f	3	0.04000000000000001	2	f	1	0.463719434075756
21	13	n/a	n/a	n/a	f	3	0.05000000000000002	2	f	1	0.4097049241827335
21	14	n/a	n/a	n/a	j	3	0.06000000000000002	1	j	1	0.4362591549288481
21	15	n/a	n/a	n/a	f	3	0.05000000000000002	2	f	1	0.4315495850460138
21	16	n/a	n/a	n/a	f	3	0.06000000000000002	1	f	1	0.4265075883595273
21	17	n/a	n/a	n/a	f	3	0.05000000000000002	1	f	1	0.3973908771877177
21	18	n/a	n/a	n/a	f	3	0.04000000000000001	1	f	1	0.4722998090728652
21	19	n/a	n/a	n/a	f	3	0.03000000000000001	2	f	1	0.4434277138498146
21	20	n/a	n/a	n/a	j	3	0.04000000000000001	2	f	0	0.3754150702152401
21	21	n/a	n/a	n/a	f	3	0.05000000000000002	1	f	1	0.4421213848108891
21	22	n/a	n/a	n/a	f	3	0.04000000000000001	2	f	1	0.4544428444060031
21	23	n/a	n/a	n/a	f	3	0.05000000000000002	2	f	1	0.3924235767626669
21	24	n/a	n/a	n/a	f	3	0.06000000000000002	1	f	1	0.4670650846383069
21	25	n/a	n/a	n/a	f	3	0.05000000000000002	2	f	1	0.4223126243159641
21	26	n/a	n/a	n/a	j	3	0.06000000000000002	1	j	1	0.4330346718779765
21	27	n/a	n/a	n/a	f	3	0.05000000000000002	1	f	1	0.4358118327218108
21	28	n/a	n/a	n/a	f	3	0.04000000000000001	2	f	1	0.4312393960426562
21	29	n/a	n/a	n/a	f	3	0.05000000000000002	1	f	1	0.4021731476241257
21	30	n/a	n/a	n/a	f	3	0.04000000000000001	1	f	1	0.4852402211399749
21	31	n/a	n/a	n/a	f	3	0.03000000000000001	2	f	1	0.393214729760075
21	32	n/a	n/a	n/a	j	3	0.04000000000000001	1	j	1	0.5156912011443637
21	33	n/a	n/a	n/a	f	3	0.03000000000000001	2	f	1	0.3991496601956896
21	34	n/a	n/a	n/a	f	3	0.04000000000000001	1	f	1	0.4341325926652644
21	35	n/a	n/a	n/a	f	3	0.03000000000000001	2	f	1	0.390139924333198
21	36	n/a	n/a	n/a	f	3	0.04000000000000001	1	f	1	0.4745834615023341
21	37	n/a	n/a	n/a	f	3	0.03000000000000001	2	f	1	0.4055803798837587
21	38	n/a	n/a	n/a	j	3	0.04000000000000001	1	j	1	0.432900104613509
21	39	n/a	n/a	n/a	f	3	0.03000000000000001	2	f	1	0.4279698671889491
21	40	n/a	n/a	n/a	f	3	0.04000000000000001	1	f	1	0.4227063476573676
21	41	n/a	n/a	n/a	f	3	0.03000000000000001	2	f	1	0.4019062938459683
21	42	n/a	n/a	n/a	f	3	0.04000000000000001	1	f	1	0.4688232974731363
21	43	n/a	n/a	n/a	f	3	0.03000000000000001	2	f	1	0.4160486882901751
21	44	n/a	n/a	n/a	j	3	0.04000000000000001	1	j	1	0.4103010686521884
21	45	n/a	n/a	n/a	f	3	0.03000000000000001	1	f	1	0.3818098672782071
21	46	n/a	n/a	n/a	f	3	0.02000000000000001	1	f	1	0.4486085543176159
21	47	n/a	n/a	n/a	f	3	0.01000000000000001	2	f	1	0.35680629638955
21	48	n/a	n/a	n/a	f	3	0.02000000000000001	0	f	1	0.4408732162264641
21	49	n/a	n/a	n/a	f	3	0.03000000000000001	2	f	1	0.4128701063455082
21	50	n/a	n/a	n/a	j	3	0.04000000000000001	2	f	0	0.3838928091572598
21	51	n/a	n/a	n/a	f	3	0.03000000000000001	1	f	1	0.3638357263989747
21	52	n/a	n/a	n/a	f	3	0.02000000000000001	0	f	1	0.4607025039440487
21	53	n/a	n/a	n/a	f	3	0.03000000000000001	2	f	1	0.3445301677274983
21	54	n/a	n/a	n/a	f	3	0.04000000000000001	0	f	1	0.444360561639769
21	55	n/a	n/a	n/a	f	3	0.05000000000000002	2	f	1	0.3683497175807133
21	56	n/a	n/a	n/a	j	3	0.06000000000000002	1	j	1	0.4031410627067089
21	57	n/a	n/a	n/a	f	3	0.05000000000000002	1	f	1	0.4302281457057688
21	58	n/a	n/a	n/a	f	3	0.04000000000000001	2	f	1	0.4635010473139118
21	59	n/a	n/a	n/a	f	3	0.05000000000000002	2	f	1	0.4342694407678209
21	60	n/a	n/a	n/a	f	3	0.06000000000000002	1	f	1	0.4294700643513352
21	61	n/a	n/a	n/a	f	3	0.05000000000000002	1	f	1	0.3855050507117994
21	62	n/a	n/a	n/a	j	3	0.04000000000000001	1	j	1	0.4118611368176062
21	63	n/a	n/a	n/a	f	3	0.03000000000000001	1	f	1	0.4474165504507255
21	64	n/a	n/a	n/a	f	3	0.02000000000000001	2	f	1	0.4424022085149772
21	65	n/a	n/a	n/a	f	3	0.03000000000000001	2	f	1	0.3973455462837592
21	66	n/a	n/a	n/a	f	3	0.04000000000000001	1	f	1	0.4333043766673654
21	67	n/a	n/a	n/a	f	3	0.03000000000000001	2	f	1	0.4360419085714966
21	68	n/a	n/a	n/a	j	3	0.04000000000000001	2	j	1	0.4392718085146043
21	69	n/a	n/a	n/a	f	3	0.05000000000000002	2	f	1	0.4344005868479144
21	70	n/a	n/a	n/a	f	3	0.06000000000000002	1	f	1	0.4542341510532424
21	71	n/a	n/a	n/a	f	3	0.05000000000000002	2	f	1	0.4572282731533051
22	0	f	1	0.2942407767986879	f	9	0.12	0	f	1	1.111550006986363
22	1	n/a	n/a	n/a	j	9	0.13	1	j	1	1.017472934705438
22	2	n/a	n/a	n/a	f	9	0.12	1	f	1	1.002486358687747
22	3	n/a	n/a	n/a	f	9	0.11	1	f	1	1.069423604436452
22	4	n/a	n/a	n/a	f	9	0.1	1	f	1	0.9773134382849094
22	5	n/a	n/a	n/a	j	9	0.09000000000000002	1	j	1	1.004247422475601
22	6	n/a	n/a	n/a	f	9	0.08000000000000003	1	f	1	0.9911764345306437
