blockLoop_thisRepN	trialLoop_thisRepN	firstKey	readyKey_corr	readyKey_rt	targetKey	blockType	margin	outcome	trialResp_keys	trialResp_corr	trialResp_rt
0	0	j	1	25.56985367803463	j	8	0.1	0	j	1	0.5915999793587616
0	1	n/a	n/a	n/a	j	8	0.11	1	j	1	0.5781418253645825
0	2	n/a	n/a	n/a	f	8	0.1	1	f	1	0.6370780196602936
0	3	n/a	n/a	n/a	j	8	0.09000000000000001	1	j	1	0.5452093333815355
0	4	n/a	n/a	n/a	j	8	0.08000000000000002	1	j	1	0.6280280846485766
0	5	n/a	n/a	n/a	j	8	0.07000000000000002	1	j	1	0.5990063118333637
0	6	n/a	n/a	n/a	j	8	0.06000000000000002	1	j	1	0.5699503269961497
0	7	n/a	n/a	n/a	j	8	0.05000000000000002	1	j	1	0.5969279315213498
0	8	n/a	n/a	n/a	f	8	0.04000000000000001	1	f	1	0.6160821020093863
0	9	n/a	n/a	n/a	j	8	0.03000000000000001	2	j	1	0.5148923504484628
0	10	n/a	n/a	n/a	j	8	0.04000000000000001	0	j	1	0.7418149876593816
0	11	n/a	n/a	n/a	j	8	0.05000000000000002	2	j	1	0.616976176173921
0	12	n/a	n/a	n/a	j	8	0.06000000000000002	1	j	1	0.548478006944606
0	13	n/a	n/a	n/a	j	8	0.05000000000000002	1	j	1	0.5759129121579463
0	14	n/a	n/a	n/a	f	8	0.04000000000000001	1	f	1	0.6426936379039034
0	15	n/a	n/a	n/a	j	8	0.03000000000000001	2	j	1	0.6062775068221526
0	16	n/a	n/a	n/a	j	8	0.04000000000000001	1	j	1	0.5786036876570506
0	17	n/a	n/a	n/a	j	8	0.03000000000000001	1	j	1	0.7025797859987506
0	18	n/a	n/a	n/a	j	8	0.02000000000000001	2	j	1	0.5375344365374986
0	19	n/a	n/a	n/a	j	8	0.03000000000000001	0	j	1	0.5805175651639729
0	20	n/a	n/a	n/a	f	8	0.04000000000000001	1	f	1	0.5834538119179342
0	21	n/a	n/a	n/a	j	8	0.03000000000000001	1	j	1	0.5554364470362998
0	22	n/a	n/a	n/a	j	8	0.02000000000000001	0	j	1	0.5820137709088158
0	23	n/a	n/a	n/a	j	8	0.03000000000000001	1	j	1	0.7534202755832666
0	24	n/a	n/a	n/a	j	8	0.02000000000000001	2	j	1	0.0693571760712075
0	25	n/a	n/a	n/a	j	8	0.03000000000000001	0	j	1	0.4765147301277466
0	26	n/a	n/a	n/a	f	8	0.04000000000000001	0	j	0	0.5924518586962222
0	27	n/a	n/a	n/a	j	8	0.05000000000000002	1	j	1	0.6993145336373345
0	28	n/a	n/a	n/a	j	8	0.04000000000000001	2	j	1	0.7102421384333866
0	29	n/a	n/a	n/a	j	8	0.05000000000000002	2	f	0	0.6892125789618149
0	30	n/a	n/a	n/a	j	8	0.06000000000000002	2	j	1	2.612128332713837
0	31	n/a	n/a	n/a	j	8	0.07000000000000002	2	j	1	0.5270205121023537
0	32	n/a	n/a	n/a	f	8	0.08000000000000002	1	f	1	0.5389907282569766
0	33	n/a	n/a	n/a	j	8	0.07000000000000002	1	j	1	0.5739656779296638
0	34	n/a	n/a	n/a	j	8	0.06000000000000002	1	j	1	0.5779351277351452
0	35	n/a	n/a	n/a	j	8	0.05000000000000002	1	j	1	0.6378269778324466
0	36	n/a	n/a	n/a	j	8	0.04000000000000001	2	j	1	0.5849981995925191
0	37	n/a	n/a	n/a	j	8	0.05000000000000002	1	j	1	0.4996377802217467
0	38	n/a	n/a	n/a	f	8	0.04000000000000001	0	f	1	0.574878568706481
0	39	n/a	n/a	n/a	j	8	0.05000000000000002	1	j	1	0.5706368482287871
0	40	n/a	n/a	n/a	j	8	0.04000000000000001	1	j	1	0.6144399249733397
0	41	n/a	n/a	n/a	j	8	0.03000000000000001	1	j	1	0.5147358304502632
0	42	n/a	n/a	n/a	j	8	0.02000000000000001	0	j	1	0.533346029794302
0	43	n/a	n/a	n/a	j	8	0.03000000000000001	0	j	1	0.5288089455307272
0	44	n/a	n/a	n/a	f	8	0.04000000000000001	0	f	1	0.531617467403521
0	45	n/a	n/a	n/a	j	8	0.05000000000000002	0	j	1	0.5365978824465856
0	46	n/a	n/a	n/a	j	8	0.06000000000000002	1	j	1	0.5482559139045406
0	47	n/a	n/a	n/a	j	8	0.05000000000000002	1	j	1	0.5541751638402275
0	48	n/a	n/a	n/a	j	8	0.04000000000000001	1	j	1	0.5344550694944701
0	49	n/a	n/a	n/a	j	8	0.03000000000000001	0	j	1	0.5614480694293889
0	50	n/a	n/a	n/a	f	8	0.04000000000000001	1	f	1	0.5480928366014268
0	51	n/a	n/a	n/a	j	8	0.03000000000000001	0	j	1	0.5444848938241194
0	52	n/a	n/a	n/a	j	8	0.04000000000000001	0	j	1	0.5724027587430101
0	53	n/a	n/a	n/a	j	8	0.05000000000000002	1	j	1	0.6804645650408929
0	54	n/a	n/a	n/a	j	8	0.04000000000000001	2	j	1	0.5563071429851334
0	55	n/a	n/a	n/a	j	8	0.05000000000000002	1	j	1	0.5592251433272395
0	56	n/a	n/a	n/a	f	8	0.04000000000000001	1	f	1	0.562283127856972
0	57	n/a	n/a	n/a	j	8	0.03000000000000001	1	j	1	0.5271967040143863
0	58	n/a	n/a	n/a	j	8	0.02000000000000001	0	j	1	0.5869269023096422
0	59	n/a	n/a	n/a	j	8	0.03000000000000001	1	j	1	0.5271468114824529
0	60	n/a	n/a	n/a	j	8	0.02000000000000001	0	j	1	0.5090372480526639
0	61	n/a	n/a	n/a	j	8	0.03000000000000001	0	j	1	0.4989592417932727
0	62	n/a	n/a	n/a	f	8	0.04000000000000001	0	f	1	0.5008172396655937
0	63	n/a	n/a	n/a	j	8	0.05000000000000002	0	j	1	0.4971328900410299
0	64	n/a	n/a	n/a	j	8	0.06000000000000002	0	j	1	0.5509298684919486
0	65	n/a	n/a	n/a	j	8	0.07000000000000002	1	j	1	0.5639281558951552
0	66	n/a	n/a	n/a	j	8	0.06000000000000002	1	j	1	0.6079000119461853
0	67	n/a	n/a	n/a	j	8	0.05000000000000002	1	j	1	0.5878021598618943
0	68	n/a	n/a	n/a	f	8	0.04000000000000001	1	f	1	0.5769997140450869
0	69	n/a	n/a	n/a	j	8	0.03000000000000001	1	j	1	0.605821916734385
0	70	n/a	n/a	n/a	j	8	0.02000000000000001	2	j	1	0.5777389788108849
0	71	n/a	n/a	n/a	j	8	0.03000000000000001	1	j	1	12.54061722478309
1	0	f	1	0.6403384253180775	f	7	0.1	2	f	1	0.5618939661108016
1	1	n/a	n/a	n/a	f	7	0.11	1	f	1	0.5746941088891617
1	2	n/a	n/a	n/a	j	7	0.1	1	j	1	0.6048491549199753
1	3	n/a	n/a	n/a	f	7	0.09000000000000001	1	f	1	0.5680099351702665
1	4	n/a	n/a	n/a	f	7	0.08000000000000002	1	f	1	0.5563593163187761
1	5	n/a	n/a	n/a	f	7	0.07000000000000002	1	f	1	0.5834170339949196
1	6	n/a	n/a	n/a	f	7	0.06000000000000002	1	f	1	0.5547667467135398
1	7	n/a	n/a	n/a	f	7	0.05000000000000002	1	f	1	0.6397166218248458
1	8	n/a	n/a	n/a	j	7	0.04000000000000001	2	j	1	0.4986467719963912
1	9	n/a	n/a	n/a	f	7	0.05000000000000002	0	f	1	0.5495690853331325
1	10	n/a	n/a	n/a	f	7	0.06000000000000002	1	f	1	0.5385630779874191
1	11	n/a	n/a	n/a	f	7	0.05000000000000002	1	f	1	0.5335359065147713
1	12	n/a	n/a	n/a	f	7	0.04000000000000001	0	f	1	0.5930009616431562
1	13	n/a	n/a	n/a	f	7	0.05000000000000002	1	f	1	0.5484472161251688
1	14	n/a	n/a	n/a	j	7	0.04000000000000001	0	j	1	0.5594084627427947
1	15	n/a	n/a	n/a	f	7	0.05000000000000002	1	f	1	0.5393907238094471
1	16	n/a	n/a	n/a	f	7	0.04000000000000001	0	f	1	0.5053720001405964
1	17	n/a	n/a	n/a	f	7	0.05000000000000002	0	f	1	0.5253156130265779
1	18	n/a	n/a	n/a	f	7	0.06000000000000002	0	f	1	0.5152912056000787
1	19	n/a	n/a	n/a	f	7	0.07000000000000002	1	f	1	0.5695432039392472
1	20	n/a	n/a	n/a	j	7	0.06000000000000002	1	j	1	0.5182377159599127
1	21	n/a	n/a	n/a	f	7	0.05000000000000002	0	f	1	0.5382015709592451
1	22	n/a	n/a	n/a	f	7	0.06000000000000002	1	f	1	0.5523317060769841
1	23	n/a	n/a	n/a	f	7	0.05000000000000002	1	f	1	0.5241261750761623
1	24	n/a	n/a	n/a	f	7	0.04000000000000001	0	f	1	0.6081101307781864
1	25	n/a	n/a	n/a	f	7	0.05000000000000002	1	f	1	0.5650950709323297
1	26	n/a	n/a	n/a	j	7	0.04000000000000001	1	j	1	0.5300046556858433
1	27	n/a	n/a	n/a	f	7	0.03000000000000001	0	f	1	0.5501415664939486
1	28	n/a	n/a	n/a	f	7	0.04000000000000001	1	f	1	0.5211163724761718
1	29	n/a	n/a	n/a	f	7	0.03000000000000001	0	f	1	0.501976742097213
1	30	n/a	n/a	n/a	f	7	0.04000000000000001	0	f	1	0.5699349315855216
1	31	n/a	n/a	n/a	f	7	0.05000000000000002	1	f	1	0.5747790687437373
1	32	n/a	n/a	n/a	j	7	0.04000000000000001	1	j	1	0.5626412136834915
1	33	n/a	n/a	n/a	f	7	0.03000000000000001	1	f	1	0.5178947404438077
1	34	n/a	n/a	n/a	f	7	0.02000000000000001	0	f	1	0.544653102931079
1	35	n/a	n/a	n/a	f	7	0.03000000000000001	0	f	1	0.5009309946372014
1	36	n/a	n/a	n/a	f	7	0.04000000000000001	0	f	1	0.5707557350033312
1	37	n/a	n/a	n/a	f	7	0.05000000000000002	1	f	1	0.5358534858769417
1	38	n/a	n/a	n/a	j	7	0.04000000000000001	0	j	1	0.5488985297097315
1	39	n/a	n/a	n/a	f	7	0.05000000000000002	1	f	1	0.5511365661222953
1	40	n/a	n/a	n/a	f	7	0.04000000000000001	1	f	1	0.5705478969721298
1	41	n/a	n/a	n/a	f	7	0.03000000000000001	1	f	1	0.5975237908969575
1	42	n/a	n/a	n/a	f	7	0.02000000000000001	1	f	1	0.5935597579955356
1	43	n/a	n/a	n/a	f	7	0.01000000000000001	1	f	1	0.5416273347209426
1	44	n/a	n/a	n/a	j	7	1.040834085586084e-17	0	j	1	0.6005427167028756
1	45	n/a	n/a	n/a	f	7	0.01000000000000001	2	f	1	0.5314161866763243
1	46	n/a	n/a	n/a	f	7	0.02000000000000001	0	f	1	0.5755516902308955
1	47	n/a	n/a	n/a	f	7	0.03000000000000001	1	f	1	0.5474097365695343
1	48	n/a	n/a	n/a	f	7	0.02000000000000001	0	f	1	0.5991023905935435
1	49	n/a	n/a	n/a	f	7	0.03000000000000001	1	f	1	0.5870611844939049
1	50	n/a	n/a	n/a	j	7	0.02000000000000001	1	j	1	0.6232178744130579
1	51	n/a	n/a	n/a	f	7	0.01000000000000001	2	f	1	0.5792528607662462
1	52	n/a	n/a	n/a	f	7	0.02000000000000001	1	f	1	0.5452569451117597
1	53	n/a	n/a	n/a	f	7	0.01000000000000001	0	f	1	0.5651281425516572
1	54	n/a	n/a	n/a	f	7	0.02000000000000001	1	f	1	0.6092402678914368
1	55	n/a	n/a	n/a	f	7	0.01000000000000001	2	f	1	0.6162534472177867
1	56	n/a	n/a	n/a	j	7	0.02000000000000001	2	j	1	0.5401935659165247
1	57	n/a	n/a	n/a	f	7	0.03000000000000001	0	f	1	0.5266855193913216
1	58	n/a	n/a	n/a	f	7	0.04000000000000001	0	f	1	0.5561896817107481
1	59	n/a	n/a	n/a	f	7	0.05000000000000002	1	f	1	0.5131176018285259
1	60	n/a	n/a	n/a	f	7	0.04000000000000001	0	f	1	0.5569942344191077
1	61	n/a	n/a	n/a	f	7	0.05000000000000002	1	f	1	0.5229706640466247
1	62	n/a	n/a	n/a	j	7	0.04000000000000001	0	j	1	0.5599652633936785
1	63	n/a	n/a	n/a	f	7	0.05000000000000002	1	f	1	0.5558586804027073
1	64	n/a	n/a	n/a	f	7	0.04000000000000001	1	f	1	0.5289241260043127
1	65	n/a	n/a	n/a	f	7	0.03000000000000001	0	f	1	0.5637505384829637
1	66	n/a	n/a	n/a	f	7	0.04000000000000001	1	f	1	0.5377864650972697
1	67	n/a	n/a	n/a	f	7	0.03000000000000001	0	f	1	0.5337300597375361
1	68	n/a	n/a	n/a	j	7	0.04000000000000001	0	j	1	0.5216763092294059
1	69	n/a	n/a	n/a	f	7	0.05000000000000002	0	f	1	0.5826409913051975
1	70	n/a	n/a	n/a	f	7	0.06000000000000002	1	f	1	0.5315336479507096
1	71	n/a	n/a	n/a	f	7	0.05000000000000002	0	f	1	0.5356020275185074
2	0	j	1	0.008210029881411174	j	10	0.1	0	j	1	0.9376950619798663
2	1	n/a	n/a	n/a	f	10	0.11	1	f	1	0.9895559251090162
2	2	n/a	n/a	n/a	j	10	0.1	1	j	1	0.9612768382621653
2	3	n/a	n/a	n/a	j	10	0.09000000000000001	1	j	1	0.9424568051845199
2	4	n/a	n/a	n/a	j	10	0.08000000000000002	1	j	1	0.9714189920632634
2	5	n/a	n/a	n/a	f	10	0.07000000000000002	1	f	1	0.953362172166635
2	6	n/a	n/a	n/a	j	10	0.06000000000000002	1	j	1	0.960345130873975
2	7	n/a	n/a	n/a	j	10	0.05000000000000002	1	j	1	0.9562798874085274
2	8	n/a	n/a	n/a	j	10	0.04000000000000001	1	j	1	0.9602501925137403
2	9	n/a	n/a	n/a	f	10	0.03000000000000001	1	f	1	1.019174412600478
2	10	n/a	n/a	n/a	j	10	0.02000000000000001	2	j	1	0.8631023062034728
2	11	n/a	n/a	n/a	j	10	0.03000000000000001	0	j	1	0.9080549068730761
2	12	n/a	n/a	n/a	j	10	0.04000000000000001	0	j	1	0.9771061704523163
2	13	n/a	n/a	n/a	f	10	0.05000000000000002	1	f	1	0.9896819393879923
2	14	n/a	n/a	n/a	j	10	0.04000000000000001	1	j	1	0.9770089512903724
2	15	n/a	n/a	n/a	j	10	0.03000000000000001	1	j	1	1.045795356801136
2	16	n/a	n/a	n/a	j	10	0.02000000000000001	2	j	1	0.9777214166406338
2	17	n/a	n/a	n/a	f	10	0.03000000000000001	1	f	1	0.9337116422657346
2	18	n/a	n/a	n/a	j	10	0.02000000000000001	0	j	1	0.9776224868774079
2	19	n/a	n/a	n/a	j	10	0.03000000000000001	1	j	1	0.8925465974862163
2	20	n/a	n/a	n/a	j	10	0.02000000000000001	0	j	1	0.9195330401171304
2	21	n/a	n/a	n/a	f	10	0.03000000000000001	0	f	1	0.9395082991231902
2	22	n/a	n/a	n/a	j	10	0.04000000000000001	0	j	1	0.999530440003582
2	23	n/a	n/a	n/a	j	10	0.05000000000000002	1	j	1	0.8101420967805097
2	24	n/a	n/a	n/a	j	10	0.04000000000000001	0	j	1	0.9033142610815048
2	25	n/a	n/a	n/a	f	10	0.05000000000000002	0	f	1	0.9402709421046893
2	26	n/a	n/a	n/a	j	10	0.06000000000000002	1	j	1	0.9992045704975681
2	27	n/a	n/a	n/a	j	10	0.05000000000000002	1	j	1	0.9642587010439456
2	28	n/a	n/a	n/a	j	10	0.04000000000000001	1	j	1	0.9372562928019761
2	29	n/a	n/a	n/a	f	10	0.03000000000000001	0	f	1	0.9101196023766533
2	30	n/a	n/a	n/a	j	10	0.04000000000000001	0	j	1	0.9786477071247646
2	31	n/a	n/a	n/a	j	10	0.05000000000000002	1	j	1	1.053959485554515
2	32	n/a	n/a	n/a	j	10	0.04000000000000001	2	j	1	0.9158167592722748
2	33	n/a	n/a	n/a	f	10	0.05000000000000002	0	f	1	0.9055910711185788
2	34	n/a	n/a	n/a	j	10	0.06000000000000002	0	j	1	0.9337524115917404
2	35	n/a	n/a	n/a	j	10	0.07000000000000002	1	j	1	0.8496897682398412
2	36	n/a	n/a	n/a	j	10	0.06000000000000002	0	j	1	0.8696621762437644
2	37	n/a	n/a	n/a	f	10	0.07000000000000002	0	f	1	0.8115473555671997
2	38	n/a	n/a	n/a	j	10	0.08000000000000002	0	j	1	0.9526767913339427
2	39	n/a	n/a	n/a	j	10	0.09000000000000001	1	j	1	0.9415188255925386
2	40	n/a	n/a	n/a	j	10	0.08000000000000002	1	j	1	0.9211883317620959
2	41	n/a	n/a	n/a	f	10	0.07000000000000002	1	f	1	0.8450682943230277
2	42	n/a	n/a	n/a	j	10	0.06000000000000002	0	j	1	0.9213400050575729
2	43	n/a	n/a	n/a	j	10	0.07000000000000002	1	j	1	0.8552717446618772
2	44	n/a	n/a	n/a	j	10	0.06000000000000002	0	j	1	0.9801595933786302
2	45	n/a	n/a	n/a	f	10	0.07000000000000002	1	f	1	0.9203144997109121
2	46	n/a	n/a	n/a	j	10	0.06000000000000002	0	j	1	0.9342279586908262
2	47	n/a	n/a	n/a	j	10	0.07000000000000002	1	j	1	0.890139781767175
2	48	n/a	n/a	n/a	j	10	0.06000000000000002	0	j	1	0.8402121829576572
2	49	n/a	n/a	n/a	f	10	0.07000000000000002	0	f	1	0.9007383809566818
2	50	n/a	n/a	n/a	j	10	0.08000000000000002	0	j	1	0.9691093955052565
2	51	n/a	n/a	n/a	j	10	0.09000000000000001	1	j	1	0.9888739654779783
2	52	n/a	n/a	n/a	j	10	0.08000000000000002	1	j	1	1.000935983891395
2	53	n/a	n/a	n/a	f	10	0.07000000000000002	1	f	1	0.9578037478704573
2	54	n/a	n/a	n/a	j	10	0.06000000000000002	1	j	1	6.915697302297303
2	55	n/a	n/a	n/a	j	10	0.05000000000000002	1	f	0	1.008380804889384
2	56	n/a	n/a	n/a	j	10	0.06000000000000002	1	j	1	0.9012529867804915
2	57	n/a	n/a	n/a	f	10	0.05000000000000002	1	j	0	0.913247436450547
2	58	n/a	n/a	n/a	j	10	0.06000000000000002	1	f	0	1.239148303126967
2	59	n/a	n/a	n/a	j	10	0.07000000000000002	1	f	0	1.002112877433319
2	60	n/a	n/a	n/a	j	10	0.08000000000000002	1	j	1	0.8940533519371456
2	61	n/a	n/a	n/a	f	10	0.07000000000000002	1	j	0	0.9160730643343413
2	62	n/a	n/a	n/a	j	10	0.08000000000000002	1	f	0	1.003004955896358
2	63	n/a	n/a	n/a	j	10	0.07000000000000002	1	f	0	1.008911376324249
2	64	n/a	n/a	n/a	j	10	0.06000000000000002	1	j	1	0.9179265006032438
2	65	n/a	n/a	n/a	f	10	0.05000000000000002	1	j	0	1.13190387904524
2	66	n/a	n/a	n/a	j	10	0.06000000000000002	2	j	1	0.920737588377051
2	67	n/a	n/a	n/a	j	10	0.07000000000000002	1	j	1	0.893677304799894
2	68	n/a	n/a	n/a	j	10	0.06000000000000002	1	f	0	0.9155989427345048
2	69	n/a	n/a	n/a	f	10	0.07000000000000002	1	j	0	0.9136226282871576
2	70	n/a	n/a	n/a	j	10	0.06000000000000002	0	j	1	0.8525002858132211
2	71	n/a	n/a	n/a	j	10	0.07000000000000002	0	j	1	0.8874310449573386
3	0	f	1	0.0451248011786447	f	5	0.1	2	f	1	0.5746379441534373
3	1	n/a	n/a	n/a	j	5	0.11	1	j	1	0.6105388992109511
3	2	n/a	n/a	n/a	f	5	0.1	1	f	1	0.61564675403406
3	3	n/a	n/a	n/a	f	5	0.09000000000000001	1	f	1	0.6275593799518902
3	4	n/a	n/a	n/a	f	5	0.08000000000000002	1	f	1	0.5914463103617891
3	5	n/a	n/a	n/a	j	5	0.07000000000000002	1	j	1	0.6193647454811071
3	6	n/a	n/a	n/a	f	5	0.06000000000000002	1	f	1	0.6665337149497645
3	7	n/a	n/a	n/a	f	5	0.05000000000000002	2	f	1	0.5103307475692418
3	8	n/a	n/a	n/a	f	5	0.06000000000000002	0	f	1	0.58534089000932
3	9	n/a	n/a	n/a	j	5	0.07000000000000002	1	j	1	0.5742467867066807
3	10	n/a	n/a	n/a	f	5	0.06000000000000002	1	f	1	0.6432769528719291
3	11	n/a	n/a	n/a	f	5	0.05000000000000002	2	f	1	0.5662597051659759
3	12	n/a	n/a	n/a	f	5	0.06000000000000002	1	f	1	0.5381499678269392
3	13	n/a	n/a	n/a	j	5	0.05000000000000002	1	j	1	0.5843387628765413
3	14	n/a	n/a	n/a	f	5	0.04000000000000001	1	f	1	0.5787573566540232
3	15	n/a	n/a	n/a	f	5	0.03000000000000001	1	f	1	0.5842378374127293
3	16	n/a	n/a	n/a	f	5	0.02000000000000001	1	f	1	0.5710362735808303
3	17	n/a	n/a	n/a	j	5	0.01000000000000001	0	j	1	0.6069492028454988
3	18	n/a	n/a	n/a	f	5	0.02000000000000001	2	f	1	0.6338834721436797
3	19	n/a	n/a	n/a	f	5	0.03000000000000001	2	f	1	0.6228669160918798
3	20	n/a	n/a	n/a	f	5	0.04000000000000001	1	f	1	0.603041619780015
3	21	n/a	n/a	n/a	j	5	0.03000000000000001	1	j	1	0.5999827799487321
3	22	n/a	n/a	n/a	f	5	0.02000000000000001	1	f	1	0.6038065435623139
3	23	n/a	n/a	n/a	f	5	0.01000000000000001	2	f	1	0.5519302850234453
3	24	n/a	n/a	n/a	f	5	0.02000000000000001	0	f	1	1.315698556737516
3	25	n/a	n/a	n/a	j	5	0.03000000000000001	2	j	1	0.5609140767928693
3	26	n/a	n/a	n/a	f	5	0.04000000000000001	1	f	1	0.5656193701624943
3	27	n/a	n/a	n/a	f	5	0.03000000000000001	1	f	1	0.5375945926762142
3	28	n/a	n/a	n/a	f	5	0.02000000000000001	0	f	1	0.5335073964970434
3	29	n/a	n/a	n/a	j	5	0.03000000000000001	0	j	1	0.5766005737923479
3	30	n/a	n/a	n/a	f	5	0.04000000000000001	1	f	1	0.5816733612946337
3	31	n/a	n/a	n/a	f	5	0.03000000000000001	1	f	1	0.5294809266551965
3	32	n/a	n/a	n/a	f	5	0.02000000000000001	0	f	1	0.5414562746127558
3	33	n/a	n/a	n/a	j	5	0.03000000000000001	0	j	1	0.5773746207814838
3	34	n/a	n/a	n/a	f	5	0.04000000000000001	1	f	1	0.6053708882500359
3	35	n/a	n/a	n/a	f	5	0.03000000000000001	1	f	1	0.5542068099593962
3	36	n/a	n/a	n/a	f	5	0.02000000000000001	0	f	1	0.5983123779951711
3	37	n/a	n/a	n/a	j	5	0.03000000000000001	1	j	1	0.5709541647293008
3	38	n/a	n/a	n/a	f	5	0.02000000000000001	1	f	1	0.6459640220682559
3	39	n/a	n/a	n/a	f	5	0.01000000000000001	2	f	1	0.561218848885801
3	40	n/a	n/a	n/a	f	5	0.02000000000000001	0	f	1	0.5981991932239907
3	41	n/a	n/a	n/a	j	5	0.03000000000000001	1	j	1	0.6181915582410511
3	42	n/a	n/a	n/a	f	5	0.02000000000000001	2	f	1	0.637125061189181
3	43	n/a	n/a	n/a	f	5	0.03000000000000001	2	f	1	0.5922049619402969
3	44	n/a	n/a	n/a	f	5	0.04000000000000001	1	f	1	0.6267117771176345
3	45	n/a	n/a	n/a	j	5	0.03000000000000001	2	j	1	0.6248777276605324
3	46	n/a	n/a	n/a	f	5	0.04000000000000001	1	f	1	0.5879572543599352
3	47	n/a	n/a	n/a	f	5	0.03000000000000001	1	f	1	0.5530370439219041
3	48	n/a	n/a	n/a	f	5	0.02000000000000001	0	f	1	0.6288910828925509
3	49	n/a	n/a	n/a	j	5	0.03000000000000001	2	j	1	0.5929131507873535
3	50	n/a	n/a	n/a	f	5	0.04000000000000001	1	f	1	0.6065303906816553
3	51	n/a	n/a	n/a	f	5	0.03000000000000001	1	f	1	0.5958451210372004
3	52	n/a	n/a	n/a	f	5	0.02000000000000001	1	f	1	0.5929179974909857
3	53	n/a	n/a	n/a	j	5	0.01000000000000001	1	j	1	0.5807504920112478
3	54	n/a	n/a	n/a	f	5	1.040834085586084e-17	0	f	1	0.6347068414634123
3	55	n/a	n/a	n/a	f	5	0.01000000000000001	2	f	1	0.5856895675287888
3	56	n/a	n/a	n/a	f	5	0.02000000000000001	1	f	1	0.6052859283954604
3	57	n/a	n/a	n/a	j	5	0.01000000000000001	2	j	1	0.6644387988271774
3	58	n/a	n/a	n/a	f	5	0.02000000000000001	2	f	1	0.6464469817728968
3	59	n/a	n/a	n/a	f	5	0.03000000000000001	2	f	1	0.6354954285616259
3	60	n/a	n/a	n/a	f	5	0.04000000000000001	2	f	1	0.5913878648243553
3	61	n/a	n/a	n/a	j	5	0.05000000000000002	1	j	1	0.5873756499931915
3	62	n/a	n/a	n/a	f	5	0.04000000000000001	1	f	1	0.5914200811457704
3	63	n/a	n/a	n/a	f	5	0.03000000000000001	1	f	1	0.628343975648022
3	64	n/a	n/a	n/a	f	5	0.02000000000000001	2	f	1	0.6353882308931134
3	65	n/a	n/a	n/a	j	5	0.03000000000000001	2	j	1	0.5754099954410776
3	66	n/a	n/a	n/a	f	5	0.04000000000000001	1	f	1	0.6272722840712959
3	67	n/a	n/a	n/a	f	5	0.03000000000000001	2	f	1	0.6392436406267734
3	68	n/a	n/a	n/a	f	5	0.04000000000000001	2	f	1	0.6063268291536588
3	69	n/a	n/a	n/a	j	5	0.05000000000000002	1	j	1	0.63615458017739
3	70	n/a	n/a	n/a	f	5	0.04000000000000001	2	f	1	0.5618717282968646
3	71	n/a	n/a	n/a	f	5	0.05000000000000002	1	f	1	0.5646651398601534
4	0	j	1	0.02980579831000796	j	2	0.1	2	j	1	0.3753138596603094
4	1	n/a	n/a	n/a	f	2	0.11	1	f	1	0.419398330283002
4	2	n/a	n/a	n/a	j	2	0.1	1	j	1	0.3934316909944755
4	3	n/a	n/a	n/a	j	2	0.09000000000000001	1	j	1	0.4052205834350389
4	4	n/a	n/a	n/a	j	2	0.08000000000000002	1	j	1	0.3624244805259877
4	5	n/a	n/a	n/a	f	2	0.07000000000000002	1	f	1	0.4012910476549223
4	6	n/a	n/a	n/a	j	2	0.06000000000000002	1	j	1	0.4143149940737203
4	7	n/a	n/a	n/a	j	2	0.05000000000000002	1	j	1	0.3778119074368078
4	8	n/a	n/a	n/a	j	2	0.04000000000000001	1	j	1	0.4211180545671596
4	9	n/a	n/a	n/a	f	2	0.03000000000000001	2	f	1	0.4426887341805923
4	10	n/a	n/a	n/a	j	2	0.04000000000000001	2	j	1	0.4150371528294272
4	11	n/a	n/a	n/a	j	2	0.05000000000000002	1	j	1	0.4030549624685591
4	12	n/a	n/a	n/a	j	2	0.04000000000000001	1	j	1	0.3692306771217773
4	13	n/a	n/a	n/a	f	2	0.03000000000000001	1	f	1	0.3639996590209194
4	14	n/a	n/a	n/a	j	2	0.02000000000000001	0	j	1	0.3859811679931227
4	15	n/a	n/a	n/a	j	2	0.03000000000000001	1	j	1	0.3805947702940102
4	16	n/a	n/a	n/a	j	2	0.02000000000000001	1	j	1	0.3520485445778831
4	17	n/a	n/a	n/a	f	2	0.01000000000000001	0	f	1	0.4140370213990536
4	18	n/a	n/a	n/a	j	2	0.02000000000000001	2	j	1	0.3869037521744758
4	19	n/a	n/a	n/a	j	2	0.03000000000000001	1	j	1	0.349876936507826
4	20	n/a	n/a	n/a	j	2	0.02000000000000001	0	j	1	0.3478726822422686
4	21	n/a	n/a	n/a	f	2	0.03000000000000001	0	f	1	0.3628307482831588
4	22	n/a	n/a	n/a	j	2	0.04000000000000001	1	j	1	0.3615423805695173
4	23	n/a	n/a	n/a	j	2	0.03000000000000001	1	j	1	0.3495134337781565
4	24	n/a	n/a	n/a	j	2	0.02000000000000001	0	j	1	0.8357566373451846
4	25	n/a	n/a	n/a	f	2	0.03000000000000001	2	f	1	0.5041554776726116
4	26	n/a	n/a	n/a	j	2	0.04000000000000001	2	j	1	0.3635355159276514
4	27	n/a	n/a	n/a	j	2	0.05000000000000002	1	j	1	0.3506293158825429
4	28	n/a	n/a	n/a	j	2	0.04000000000000001	1	j	1	0.3637125631394156
4	29	n/a	n/a	n/a	f	2	0.03000000000000001	1	f	1	0.3745560633824425
4	30	n/a	n/a	n/a	j	2	0.02000000000000001	1	j	1	0.3695648145321684
4	31	n/a	n/a	n/a	j	2	0.01000000000000001	0	j	1	0.3415471645503203
4	32	n/a	n/a	n/a	j	2	0.02000000000000001	0	j	1	0.3496853491860747
4	33	n/a	n/a	n/a	f	2	0.03000000000000001	0	f	1	0.402450264986328
4	34	n/a	n/a	n/a	j	2	0.04000000000000001	1	j	1	0.4064647606201106
4	35	n/a	n/a	n/a	j	2	0.03000000000000001	1	j	1	0.3552291221849373
4	36	n/a	n/a	n/a	j	2	0.02000000000000001	0	j	1	0.3456645813494106
4	37	n/a	n/a	n/a	f	2	0.03000000000000001	0	f	1	0.3740865033860246
4	38	n/a	n/a	n/a	j	2	0.04000000000000001	1	j	1	0.370321185308967
4	39	n/a	n/a	n/a	j	2	0.03000000000000001	1	j	1	0.3982863768587777
4	40	n/a	n/a	n/a	j	2	0.02000000000000001	1	j	1	0.3884236212343239
4	41	n/a	n/a	n/a	f	2	0.01000000000000001	1	f	1	0.4113371226949312
4	42	n/a	n/a	n/a	j	2	1.040834085586084e-17	2	j	1	0.3760673794367904
4	43	n/a	n/a	n/a	j	2	0.01000000000000001	0	j	1	0.3802361142670634
4	44	n/a	n/a	n/a	j	2	0.02000000000000001	1	j	1	0.3380749294583438
4	45	n/a	n/a	n/a	f	2	0.01000000000000001	0	f	1	0.3841180383169558
4	46	n/a	n/a	n/a	j	2	0.02000000000000001	1	j	1	0.3962122730490591
4	47	n/a	n/a	n/a	j	2	0.01000000000000001	2	j	1	0.3843107660386522
4	48	n/a	n/a	n/a	j	2	0.02000000000000001	1	j	1	0.3321676537307212
4	49	n/a	n/a	n/a	f	2	0.01000000000000001	0	f	1	0.4162884575198404
4	50	n/a	n/a	n/a	j	2	0.02000000000000001	2	j	1	0.3731884378184986
4	51	n/a	n/a	n/a	j	2	0.03000000000000001	1	j	1	0.3852125379080462
4	52	n/a	n/a	n/a	j	2	0.02000000000000001	1	j	1	0.3890713688424512
4	53	n/a	n/a	n/a	f	2	0.01000000000000001	1	f	1	0.4000026799412808
4	54	n/a	n/a	n/a	j	2	1.040834085586084e-17	2	j	1	0.4270281812969188
4	55	n/a	n/a	n/a	j	2	0.01000000000000001	2	j	1	0.326998502368042
4	56	n/a	n/a	n/a	j	2	0.02000000000000001	0	j	1	0.3779681423357033
4	57	n/a	n/a	n/a	f	2	0.03000000000000001	1	f	1	0.3668244316022538
4	58	n/a	n/a	n/a	j	2	0.02000000000000001	1	j	1	0.3699593931814888
4	59	n/a	n/a	n/a	j	2	0.01000000000000001	0	j	1	0.3419157990829262
4	60	n/a	n/a	n/a	j	2	0.02000000000000001	0	j	1	0.372528430903003
4	61	n/a	n/a	n/a	f	2	0.03000000000000001	1	f	1	0.4330098681721211
4	62	n/a	n/a	n/a	j	2	0.02000000000000001	2	j	1	0.3408255759950407
4	63	n/a	n/a	n/a	j	2	0.03000000000000001	0	j	1	0.4010048070740595
4	64	n/a	n/a	n/a	j	2	0.04000000000000001	1	j	1	0.3818178500650902
4	65	n/a	n/a	n/a	f	2	0.03000000000000001	1	f	1	0.3938117295338088
4	66	n/a	n/a	n/a	j	2	0.02000000000000001	1	f	0	0.2127488817659469
4	67	n/a	n/a	n/a	j	2	0.01000000000000001	0	j	1	0.1357906497969452
4	68	n/a	n/a	n/a	j	2	0.02000000000000001	0	j	1	0.3805770940816728
4	69	n/a	n/a	n/a	f	2	0.03000000000000001	0	j	0	0.3537734006667961
4	70	n/a	n/a	n/a	j	2	0.02000000000000001	0	f	0	0.2376329956705376
4	71	n/a	n/a	n/a	j	2	0.03000000000000001	0	j	1	0.4408076431936934
5	0	j	1	0.6790989351793542	j	6	0.1	0	j	1	0.5365690873286439
5	1	n/a	n/a	n/a	f	6	0.11	1	f	1	0.5244725717948313
5	2	n/a	n/a	n/a	j	6	0.1	1	j	1	0.5054997250208544
5	3	n/a	n/a	n/a	j	6	0.09000000000000001	1	j	1	0.5344502227908379
5	4	n/a	n/a	n/a	j	6	0.08000000000000002	1	j	1	0.5414314708968959
5	5	n/a	n/a	n/a	f	6	0.07000000000000002	1	f	1	0.4814418314381328
5	6	n/a	n/a	n/a	j	6	0.06000000000000002	0	j	1	0.5252748437005721
5	7	n/a	n/a	n/a	j	6	0.07000000000000002	1	j	1	0.5133576561802329
5	8	n/a	n/a	n/a	j	6	0.06000000000000002	0	j	1	0.4954710410920597
5	9	n/a	n/a	n/a	f	6	0.07000000000000002	0	f	1	0.4902645416059386
5	10	n/a	n/a	n/a	j	6	0.08000000000000002	0	j	1	0.4779504946345696
5	11	n/a	n/a	n/a	j	6	0.09000000000000001	0	j	1	0.5229213417160281
5	12	n/a	n/a	n/a	j	6	0.1	1	j	1	0.4713096561436032
5	13	n/a	n/a	n/a	f	6	0.09000000000000001	0	f	1	0.5081830879144036
5	14	n/a	n/a	n/a	j	6	0.1	1	j	1	0.473142280099637
5	15	n/a	n/a	n/a	j	6	0.09000000000000001	0	j	1	0.4702154416527264
5	16	n/a	n/a	n/a	j	6	0.1	0	j	1	0.4581323258271368
5	17	n/a	n/a	n/a	f	6	0.11	0	f	1	0.5008999187175505
5	18	n/a	n/a	n/a	j	6	0.12	1	j	1	0.4891386809949836
5	19	n/a	n/a	n/a	j	6	0.11	1	j	1	0.4779932596620711
5	20	n/a	n/a	n/a	j	6	0.1	0	j	1	0.4690710495306121
5	21	n/a	n/a	n/a	f	6	0.11	0	f	1	0.5010219415953543
5	22	n/a	n/a	n/a	j	6	0.12	1	j	1	0.4658306008859654
5	23	n/a	n/a	n/a	j	6	0.11	0	j	1	0.5108815611165483
5	24	n/a	n/a	n/a	j	6	0.12	1	j	1	0.515873950367677
5	25	n/a	n/a	n/a	f	6	0.11	1	f	1	0.5299510568520418
5	26	n/a	n/a	n/a	j	6	0.1	1	j	1	0.4810888774145496
5	27	n/a	n/a	n/a	j	6	0.09000000000000001	0	j	1	0.4628284959908342
5	28	n/a	n/a	n/a	j	6	0.1	0	j	1	0.4527584725365159
5	29	n/a	n/a	n/a	f	6	0.11	0	f	1	0.4777329631970133
5	30	n/a	n/a	n/a	j	6	0.12	1	j	1	0.4666400002961382
5	31	n/a	n/a	n/a	j	6	0.11	0	j	1	0.4576334005132594
5	32	n/a	n/a	n/a	j	6	0.12	0	j	1	0.4861935961371273
5	33	n/a	n/a	n/a	f	6	0.13	1	f	1	0.4756756802989912
5	34	n/a	n/a	n/a	j	6	0.12	1	j	1	0.4643098765254763
5	35	n/a	n/a	n/a	j	6	0.11	0	j	1	0.4301263649531393
5	36	n/a	n/a	n/a	j	6	0.12	0	j	1	0.4575644062697393
5	37	n/a	n/a	n/a	f	6	0.13	1	f	1	0.4760910712611803
5	38	n/a	n/a	n/a	j	6	0.12	1	j	1	0.4800653677693845
5	39	n/a	n/a	n/a	j	6	0.11	1	j	1	0.453114847760844
5	40	n/a	n/a	n/a	j	6	0.1	0	j	1	0.4444258495768736
5	41	n/a	n/a	n/a	f	6	0.11	0	f	1	0.4493361299755634
5	42	n/a	n/a	n/a	j	6	0.12	0	j	1	0.4304870166806722
5	43	n/a	n/a	n/a	j	6	0.13	0	j	1	0.4899603397143437
5	44	n/a	n/a	n/a	j	6	0.14	1	j	1	0.4863632307433363
5	45	n/a	n/a	n/a	f	6	0.13	1	f	1	0.4772591266983
5	46	n/a	n/a	n/a	j	6	0.12	1	j	1	0.4742527453008734
5	47	n/a	n/a	n/a	j	6	0.11	1	j	1	0.4414659395088165
5	48	n/a	n/a	n/a	j	6	0.1	0	j	1	0.4621719102760835
5	49	n/a	n/a	n/a	f	6	0.11	0	f	1	0.4442436705621731
5	50	n/a	n/a	n/a	j	6	0.12	0	j	1	0.441298870803621
5	51	n/a	n/a	n/a	j	6	0.13	0	j	1	0.4771094491034091
5	52	n/a	n/a	n/a	j	6	0.14	1	j	1	0.4580604805823896
5	53	n/a	n/a	n/a	f	6	0.13	1	f	1	0.4641887089501324
5	54	n/a	n/a	n/a	j	6	0.12	0	j	1	0.4607384265718792
5	55	n/a	n/a	n/a	j	6	0.13	1	j	1	0.465154058158987
5	56	n/a	n/a	n/a	j	6	0.12	0	j	1	0.4541021496834219
5	57	n/a	n/a	n/a	f	6	0.13	0	f	1	0.4509395333870998
5	58	n/a	n/a	n/a	j	6	0.14	1	j	1	0.4960680408685221
5	59	n/a	n/a	n/a	j	6	0.13	1	j	1	0.474932424130202
5	60	n/a	n/a	n/a	j	6	0.12	1	j	1	0.4538569635287786
5	61	n/a	n/a	n/a	f	6	0.11	0	f	1	0.4678676416715462
5	62	n/a	n/a	n/a	j	6	0.12	1	j	1	0.4488272261551174
5	63	n/a	n/a	n/a	j	6	0.11	0	j	1	0.4437866549742466
5	64	n/a	n/a	n/a	j	6	0.12	0	j	1	0.455614891238838
5	65	n/a	n/a	n/a	f	6	0.13	0	f	1	0.4777837110286782
5	66	n/a	n/a	n/a	j	6	0.14	1	j	1	0.4488554510726317
5	67	n/a	n/a	n/a	j	6	0.13	0	j	1	0.4606275226014986
5	68	n/a	n/a	n/a	j	6	0.14	1	j	1	0.4415440569582643
5	69	n/a	n/a	n/a	f	6	0.13	0	f	1	0.4805181068550155
5	70	n/a	n/a	n/a	j	6	0.14	1	j	1	0.4675651503803238
5	71	n/a	n/a	n/a	j	6	0.13	1	j	1	0.4495682015231068
6	0	j	0	0.05626338010733889	j	4	0.1	1	j	1	0.4098372106482202
6	1	n/a	n/a	n/a	j	4	0.09000000000000001	1	f	0	1.156729262312183
6	2	n/a	n/a	n/a	f	4	0.08000000000000002	1	j	0	0.4237455378261075
6	3	n/a	n/a	n/a	j	4	0.09000000000000001	1	j	1	0.4205700920219897
6	4	n/a	n/a	n/a	j	4	0.08000000000000002	1	j	1	0.4315561423554755
6	5	n/a	n/a	n/a	j	4	0.07000000000000002	1	f	0	0.4035253777647085
6	6	n/a	n/a	n/a	j	4	0.06000000000000002	1	j	1	0.4794563937848579
6	7	n/a	n/a	n/a	j	4	0.05000000000000002	2	j	1	0.4044217327309525
6	8	n/a	n/a	n/a	f	4	0.06000000000000002	2	j	0	0.399417369272669
6	9	n/a	n/a	n/a	j	4	0.05000000000000002	1	j	1	0.4434639215696734
6	10	n/a	n/a	n/a	j	4	0.04000000000000001	2	j	1	0.4314355449796494
6	11	n/a	n/a	n/a	j	4	0.05000000000000002	2	f	0	0.4364969284733888
6	12	n/a	n/a	n/a	j	4	0.04000000000000001	2	j	1	0.3925783861568561
6	13	n/a	n/a	n/a	j	4	0.05000000000000002	1	j	1	0.4271228345569398
6	14	n/a	n/a	n/a	f	4	0.04000000000000001	1	j	0	0.4073320353672898
6	15	n/a	n/a	n/a	j	4	0.03000000000000001	1	f	0	0.4433108227731282
6	16	n/a	n/a	n/a	j	4	0.02000000000000001	1	f	0	0.4253147292156427
6	17	n/a	n/a	n/a	j	4	0.03000000000000001	2	j	1	0.4140407277009217
6	18	n/a	n/a	n/a	j	4	0.04000000000000001	2	f	0	0.4032622302984237
6	19	n/a	n/a	n/a	j	4	0.03000000000000001	2	f	0	0.3992768148837058
6	20	n/a	n/a	n/a	f	4	0.02000000000000001	2	j	0	0.4102337849990363
6	21	n/a	n/a	n/a	j	4	0.01000000000000001	2	j	1	0.4141268279554424
6	22	n/a	n/a	n/a	j	4	0.02000000000000001	2	j	1	0.4351583831285097
6	23	n/a	n/a	n/a	j	4	0.03000000000000001	2	j	1	0.4140558380104267
6	24	n/a	n/a	n/a	j	4	0.04000000000000001	1	j	1	0.4258088078277069
6	25	n/a	n/a	n/a	j	4	0.03000000000000001	2	j	1	0.4380484436524057
6	26	n/a	n/a	n/a	f	4	0.04000000000000001	2	f	1	0.4270726569257022
6	27	n/a	n/a	n/a	j	4	0.05000000000000002	1	j	1	0.4140903351326415
6	28	n/a	n/a	n/a	j	4	0.04000000000000001	1	j	1	0.4251416734068698
6	29	n/a	n/a	n/a	j	4	0.03000000000000001	2	j	1	0.5004945062619299
6	30	n/a	n/a	n/a	j	4	0.04000000000000001	2	j	1	0.4089630934968227
6	31	n/a	n/a	n/a	j	4	0.05000000000000002	1	j	1	0.4284782008126058
6	32	n/a	n/a	n/a	f	4	0.04000000000000001	2	f	1	0.4170086205740517
6	33	n/a	n/a	n/a	j	4	0.05000000000000002	1	j	1	0.3898762066510244
6	34	n/a	n/a	n/a	j	4	0.04000000000000001	1	j	1	0.4348630193417193
6	35	n/a	n/a	n/a	j	4	0.03000000000000001	2	j	1	0.3987234354344764
6	36	n/a	n/a	n/a	j	4	0.04000000000000001	1	j	1	0.4365950029350643
6	37	n/a	n/a	n/a	j	4	0.03000000000000001	2	j	1	0.4418459780490593
6	38	n/a	n/a	n/a	f	4	0.04000000000000001	2	f	1	0.4788331647923769
6	39	n/a	n/a	n/a	j	4	0.05000000000000002	2	j	1	0.8827351598947644
6	40	n/a	n/a	n/a	j	4	0.06000000000000002	2	j	1	0.4398240475729835
6	41	n/a	n/a	n/a	j	4	0.07000000000000002	1	j	1	0.4117801683742073
6	42	n/a	n/a	n/a	j	4	0.06000000000000002	1	j	1	0.4162639389041942
6	43	n/a	n/a	n/a	j	4	0.05000000000000002	1	j	1	0.4056006219743722
6	44	n/a	n/a	n/a	f	4	0.04000000000000001	1	f	1	0.3625576223103053
6	45	n/a	n/a	n/a	j	4	0.03000000000000001	1	j	1	0.4135323940799935
6	46	n/a	n/a	n/a	j	4	0.02000000000000001	2	j	1	0.3935491522688608
6	47	n/a	n/a	n/a	j	4	0.03000000000000001	1	j	1	0.4468882598312121
6	48	n/a	n/a	n/a	j	4	0.02000000000000001	2	j	1	0.3944794341559827
6	49	n/a	n/a	n/a	j	4	0.03000000000000001	1	j	1	0.4301163864465707
6	50	n/a	n/a	n/a	f	4	0.02000000000000001	2	f	1	0.3934351121970394
6	51	n/a	n/a	n/a	j	4	0.03000000000000001	1	j	1	0.3974330720193393
6	52	n/a	n/a	n/a	j	4	0.02000000000000001	1	j	1	0.4113873003261688
6	53	n/a	n/a	n/a	j	4	0.01000000000000001	2	j	1	0.3830591762480253
6	54	n/a	n/a	n/a	j	4	0.02000000000000001	1	j	1	0.4362574443221092
6	55	n/a	n/a	n/a	j	4	0.01000000000000001	2	j	1	0.3533203764800419
6	56	n/a	n/a	n/a	f	4	0.02000000000000001	0	f	1	0.4072516371170423
6	57	n/a	n/a	n/a	j	4	0.03000000000000001	1	j	1	0.3821420089698222
6	58	n/a	n/a	n/a	j	4	0.02000000000000001	1	j	1	0.4339487030656528
6	59	n/a	n/a	n/a	j	4	0.01000000000000001	2	j	1	0.4072296844024095
6	60	n/a	n/a	n/a	j	4	0.02000000000000001	2	j	1	0.4101893093702529
6	61	n/a	n/a	n/a	j	4	0.03000000000000001	1	j	1	0.4379298419771658
6	62	n/a	n/a	n/a	f	4	0.02000000000000001	2	f	1	0.3871697506428973
6	63	n/a	n/a	n/a	j	4	0.03000000000000001	1	j	1	0.3759567605666234
6	64	n/a	n/a	n/a	j	4	0.02000000000000001	1	j	1	0.3961563934144579
6	65	n/a	n/a	n/a	j	4	0.01000000000000001	1	j	1	0.4071065211246605
6	66	n/a	n/a	n/a	j	4	1.040834085586084e-17	2	j	1	0.3870770930843719
6	67	n/a	n/a	n/a	j	4	0.01000000000000001	1	j	1	0.4144558335628972
6	68	n/a	n/a	n/a	f	4	1.040834085586084e-17	2	f	1	0.3559886290640861
6	69	n/a	n/a	n/a	j	4	0.01000000000000001	0	j	1	0.4260149352585358
6	70	n/a	n/a	n/a	j	4	0.02000000000000001	2	j	1	0.4300003506732537
6	71	n/a	n/a	n/a	j	4	0.03000000000000001	2	j	1	0.4199351739216581
7	0	f	0	0.1384848464986135	f	1	0.1	1	f	1	0.2354328775818431
7	1	n/a	n/a	n/a	j	1	0.09000000000000001	1	f	0	0.2631240878572498
7	2	n/a	n/a	n/a	f	1	0.1	1	j	0	0.5945222562022536
7	3	n/a	n/a	n/a	f	1	0.11	1	j	0	0.4218901058547999
7	4	n/a	n/a	n/a	f	1	0.12	1	f	1	0.272704594303832
7	5	n/a	n/a	n/a	j	1	0.11	1	f	0	0.6536309361063104
7	6	n/a	n/a	n/a	f	1	0.12	2	f	1	0.4178371216967207
7	7	n/a	n/a	n/a	f	1	0.13	2	j	0	0.4629188727485598
7	8	n/a	n/a	n/a	f	1	0.12	2	j	0	0.4498210853826095
7	9	n/a	n/a	n/a	j	1	0.11	2	f	0	0.4537757099778901
7	10	n/a	n/a	n/a	f	1	0.1	1	f	1	0.4326121534213598
7	11	n/a	n/a	n/a	f	1	0.09000000000000002	1	f	1	0.4367438252293141
7	12	n/a	n/a	n/a	f	1	0.08000000000000003	1	f	1	0.4424187443100891
7	13	n/a	n/a	n/a	j	1	0.07000000000000003	1	j	1	0.4227094837715413
7	14	n/a	n/a	n/a	f	1	0.06000000000000003	1	f	1	0.4346996569393013
7	15	n/a	n/a	n/a	f	1	0.05000000000000003	1	f	1	0.4215970228697188
7	16	n/a	n/a	n/a	f	1	0.04000000000000003	1	f	1	0.4582497871006126
7	17	n/a	n/a	n/a	j	1	0.03000000000000003	2	j	1	0.4465221912005291
7	18	n/a	n/a	n/a	f	1	0.04000000000000003	2	f	1	0.4664797739960704
7	19	n/a	n/a	n/a	f	1	0.05000000000000003	2	f	1	0.4062161532629034
7	20	n/a	n/a	n/a	f	1	0.06000000000000003	1	f	1	0.4424777600479501
7	21	n/a	n/a	n/a	j	1	0.05000000000000003	2	j	1	0.4395184201803204
7	22	n/a	n/a	n/a	f	1	0.06000000000000003	1	f	1	0.4204352396363902
7	23	n/a	n/a	n/a	f	1	0.05000000000000003	1	j	0	0.4816550863724842
7	24	n/a	n/a	n/a	f	1	0.04000000000000003	2	f	1	0.1903459947270676
7	25	n/a	n/a	n/a	j	1	0.05000000000000003	2	f	0	0.3463972888112039
7	26	n/a	n/a	n/a	f	1	0.06000000000000003	1	f	1	0.7023414422474161
7	27	n/a	n/a	n/a	f	1	0.05000000000000003	2	f	1	0.4173148181671422
7	28	n/a	n/a	n/a	f	1	0.06000000000000003	2	j	0	0.7902483764255521
7	29	n/a	n/a	n/a	j	1	0.05000000000000003	2	f	0	0.7212068062535764
7	30	n/a	n/a	n/a	f	1	0.06000000000000003	2	f	1	0.5162172109839958
7	31	n/a	n/a	n/a	f	1	0.07000000000000003	2	j	0	0.8402666370920997
7	32	n/a	n/a	n/a	f	1	0.08000000000000003	2	f	1	0.6600850339791577
7	33	n/a	n/a	n/a	j	1	0.09000000000000002	2	f	0	0.5110665911342949
7	34	n/a	n/a	n/a	f	1	0.1	2	f	1	0.4500440337224063
7	35	n/a	n/a	n/a	f	1	0.11	1	f	1	0.4481760573435167
7	36	n/a	n/a	n/a	f	1	0.1	1	f	1	0.4422573776082572
7	37	n/a	n/a	n/a	j	1	0.09000000000000002	1	j	1	0.4379241399738021
7	38	n/a	n/a	n/a	f	1	0.08000000000000003	1	f	1	0.4659722956757832
7	39	n/a	n/a	n/a	f	1	0.07000000000000003	2	f	1	0.452790688856112
7	40	n/a	n/a	n/a	f	1	0.08000000000000003	1	f	1	0.4569665511917265
7	41	n/a	n/a	n/a	j	1	0.07000000000000003	2	j	1	0.4437741105657551
7	42	n/a	n/a	n/a	f	1	0.08000000000000003	1	f	1	0.4466487756799324
7	43	n/a	n/a	n/a	f	1	0.07000000000000003	1	f	1	0.4095506849671438
7	44	n/a	n/a	n/a	f	1	0.06000000000000003	1	f	1	0.4443645530391223
7	45	n/a	n/a	n/a	j	1	0.05000000000000003	2	j	1	0.4409162663623647
7	46	n/a	n/a	n/a	f	1	0.06000000000000003	1	f	1	0.4125870018842761
7	47	n/a	n/a	n/a	f	1	0.05000000000000003	1	f	1	0.4487536703090882
7	48	n/a	n/a	n/a	f	1	0.04000000000000003	2	f	1	0.4442163009452997
7	49	n/a	n/a	n/a	j	1	0.05000000000000003	2	j	1	0.4245138828109702
7	50	n/a	n/a	n/a	f	1	0.06000000000000003	1	f	1	0.4307361942373973
7	51	n/a	n/a	n/a	f	1	0.05000000000000003	1	f	1	0.4426080508301311
7	52	n/a	n/a	n/a	f	1	0.04000000000000003	2	f	1	0.4865074914350771
7	53	n/a	n/a	n/a	j	1	0.05000000000000003	2	j	1	0.4356071308111495
7	54	n/a	n/a	n/a	f	1	0.06000000000000003	1	f	1	0.4465207656994608
7	55	n/a	n/a	n/a	f	1	0.05000000000000003	2	f	1	0.4181940671223856
7	56	n/a	n/a	n/a	f	1	0.06000000000000003	1	f	1	0.4394602597431003
7	57	n/a	n/a	n/a	j	1	0.05000000000000003	2	j	1	0.4274906137898142
7	58	n/a	n/a	n/a	f	1	0.06000000000000003	1	f	1	0.4230467572842826
7	59	n/a	n/a	n/a	f	1	0.05000000000000003	1	f	1	0.3863526535269557
7	60	n/a	n/a	n/a	f	1	0.04000000000000003	1	f	1	0.4700466623462489
7	61	n/a	n/a	n/a	j	1	0.03000000000000003	2	j	1	0.4114029808361011
7	62	n/a	n/a	n/a	f	1	0.04000000000000003	1	f	1	0.4404224728505142
7	63	n/a	n/a	n/a	f	1	0.03000000000000003	2	f	1	0.4352450535834578
7	64	n/a	n/a	n/a	f	1	0.04000000000000003	2	f	1	0.4174277178381089
7	65	n/a	n/a	n/a	j	1	0.05000000000000003	1	j	1	0.4463782156090019
7	66	n/a	n/a	n/a	f	1	0.04000000000000003	2	f	1	0.4113830238238734
7	67	n/a	n/a	n/a	f	1	0.05000000000000003	1	f	1	0.432264331202532
7	68	n/a	n/a	n/a	f	1	0.04000000000000003	2	f	1	0.436151672154665
7	69	n/a	n/a	n/a	j	1	0.05000000000000003	2	j	1	0.4082432155428251
7	70	n/a	n/a	n/a	f	1	0.06000000000000003	1	f	1	0.4510455906556672
7	71	n/a	n/a	n/a	f	1	0.05000000000000003	2	f	1	0.4219197562733825
8	0	f	1	0.332835073251772	f	3	0.1	1	f	1	0.3983163123775739
8	1	n/a	n/a	n/a	f	3	0.09000000000000001	1	f	1	0.4012559803322802
8	2	n/a	n/a	n/a	j	3	0.08000000000000002	1	j	1	0.3572530483625087
8	3	n/a	n/a	n/a	f	3	0.07000000000000002	1	f	1	0.3712574543005758
8	4	n/a	n/a	n/a	f	3	0.06000000000000002	1	f	1	0.4089856164109733
8	5	n/a	n/a	n/a	f	3	0.05000000000000002	1	f	1	0.3501879808036392
8	6	n/a	n/a	n/a	f	3	0.04000000000000001	1	f	1	0.3623466481767537
8	7	n/a	n/a	n/a	f	3	0.03000000000000001	1	f	1	0.398097640539163
8	8	n/a	n/a	n/a	j	3	0.02000000000000001	1	j	1	0.4022432822557676
8	9	n/a	n/a	n/a	f	3	0.01000000000000001	2	f	1	0.3682613365099314
8	10	n/a	n/a	n/a	f	3	0.02000000000000001	1	f	1	0.3869413853981314
8	11	n/a	n/a	n/a	f	3	0.01000000000000001	1	f	1	0.3692879822574469
8	12	n/a	n/a	n/a	f	3	1.040834085586084e-17	0	f	1	0.3410123166131598
8	13	n/a	n/a	n/a	f	3	0.01000000000000001	0	f	1	0.434023114212323
8	14	n/a	n/a	n/a	j	3	0.02000000000000001	2	j	1	0.3989292777641822
8	15	n/a	n/a	n/a	f	3	0.03000000000000001	1	f	1	0.3790660631293576
8	16	n/a	n/a	n/a	f	3	0.02000000000000001	1	f	1	0.3611703248343474
8	17	n/a	n/a	n/a	f	3	0.01000000000000001	0	f	1	0.3520516806802334
8	18	n/a	n/a	n/a	f	3	0.02000000000000001	0	f	1	0.3958590339261718
8	19	n/a	n/a	n/a	f	3	0.03000000000000001	1	f	1	0.4329782220529523
8	20	n/a	n/a	n/a	j	3	0.02000000000000001	2	j	1	0.411791287280721
8	21	n/a	n/a	n/a	f	3	0.03000000000000001	1	f	1	0.3929150894691702
8	22	n/a	n/a	n/a	f	3	0.02000000000000001	1	f	1	0.3877852819314285
8	23	n/a	n/a	n/a	f	3	0.01000000000000001	1	f	1	0.3777751295137932
8	24	n/a	n/a	n/a	f	3	1.040834085586084e-17	0	f	1	0.3770139120342719
8	25	n/a	n/a	n/a	f	3	0.01000000000000001	0	f	1	0.4056670503168789
8	26	n/a	n/a	n/a	j	3	0.02000000000000001	2	j	1	0.3783256579617955
8	27	n/a	n/a	n/a	f	3	0.03000000000000001	1	f	1	0.3586717068574217
8	28	n/a	n/a	n/a	f	3	0.02000000000000001	0	f	1	0.3856655620938909
8	29	n/a	n/a	n/a	f	3	0.03000000000000001	1	f	1	0.3743074560252353
8	30	n/a	n/a	n/a	f	3	0.02000000000000001	1	f	1	0.3776072055079567
8	31	n/a	n/a	n/a	f	3	0.01000000000000001	0	f	1	0.4296513880535713
8	32	n/a	n/a	n/a	j	3	0.02000000000000001	2	j	1	0.3946259756485233
8	33	n/a	n/a	n/a	f	3	0.03000000000000001	1	f	1	0.3744654015245032
8	34	n/a	n/a	n/a	f	3	0.02000000000000001	1	f	1	0.3775422026674278
8	35	n/a	n/a	n/a	f	3	0.01000000000000001	0	f	1	0.3504368732601506
8	36	n/a	n/a	n/a	f	3	0.02000000000000001	0	f	1	0.3824445002601351
8	37	n/a	n/a	n/a	f	3	0.03000000000000001	1	f	1	0.3554757338406489
8	38	n/a	n/a	n/a	j	3	0.02000000000000001	0	j	1	0.3903041420207956
8	39	n/a	n/a	n/a	f	3	0.03000000000000001	1	f	1	0.3864187967692487
8	40	n/a	n/a	n/a	f	3	0.02000000000000001	1	f	1	0.3733349793119487
8	41	n/a	n/a	n/a	f	3	0.01000000000000001	0	f	1	0.3313565437192665
8	42	n/a	n/a	n/a	f	3	0.02000000000000001	0	f	1	0.3819706637614217
8	43	n/a	n/a	n/a	f	3	0.03000000000000001	1	f	1	0.4271898330989643
8	44	n/a	n/a	n/a	j	3	0.02000000000000001	2	j	1	0.3853037699645938
8	45	n/a	n/a	n/a	f	3	0.03000000000000001	1	f	1	0.3993748893462907
8	46	n/a	n/a	n/a	f	3	0.02000000000000001	1	f	1	0.3712269485813522
8	47	n/a	n/a	n/a	f	3	0.01000000000000001	0	f	1	0.4221752060348081
8	48	n/a	n/a	n/a	f	3	0.02000000000000001	2	f	1	0.3632099315209416
8	49	n/a	n/a	n/a	f	3	0.03000000000000001	1	f	1	0.3591529559616902
8	50	n/a	n/a	n/a	j	3	0.02000000000000001	0	j	1	0.3471650635965489
8	51	n/a	n/a	n/a	f	3	0.03000000000000001	0	f	1	0.358170500741835
8	52	n/a	n/a	n/a	f	3	0.04000000000000001	1	f	1	0.3701415721961894
8	53	n/a	n/a	n/a	f	3	0.03000000000000001	1	f	1	0.3347076112331706
8	54	n/a	n/a	n/a	f	3	0.02000000000000001	0	f	1	0.3640965930817401
8	55	n/a	n/a	n/a	f	3	0.03000000000000001	1	f	1	0.3841938749646943
8	56	n/a	n/a	n/a	j	3	0.02000000000000001	1	j	1	0.4039741254473483
8	57	n/a	n/a	n/a	f	3	0.01000000000000001	2	f	1	0.392155012389594
8	58	n/a	n/a	n/a	f	3	0.02000000000000001	1	f	1	0.3480423168502966
8	59	n/a	n/a	n/a	f	3	0.01000000000000001	0	f	1	0.3908891675910127
8	60	n/a	n/a	n/a	f	3	0.02000000000000001	1	f	1	0.3869143008814717
8	61	n/a	n/a	n/a	f	3	0.01000000000000001	1	f	1	0.4378779537446462
8	62	n/a	n/a	n/a	j	3	1.040834085586084e-17	2	j	1	0.3856994890147689
8	63	n/a	n/a	n/a	f	3	0.01000000000000001	1	f	1	0.3408788897286286
8	64	n/a	n/a	n/a	f	3	1.040834085586084e-17	0	f	1	0.408726175247466
8	65	n/a	n/a	n/a	f	3	0.01000000000000001	2	f	1	0.3408435373066823
8	66	n/a	n/a	n/a	f	3	0.02000000000000001	0	f	1	0.3618175022429568
8	67	n/a	n/a	n/a	f	3	0.03000000000000001	1	f	1	0.3895660176549427
8	68	n/a	n/a	n/a	j	3	0.02000000000000001	1	j	1	0.3547093845563722
8	69	n/a	n/a	n/a	f	3	0.01000000000000001	0	f	1	0.3605505170435208
8	70	n/a	n/a	n/a	f	3	0.02000000000000001	0	f	1	0.3977942939482091
8	71	n/a	n/a	n/a	f	3	0.03000000000000001	1	f	1	0.3847954363445751
9	0	f	1	0.04419651499210886	f	11	0.1	0	f	1	0.869103379891385
9	1	n/a	n/a	n/a	f	11	0.11	0	f	1	0.8937357503364183
9	2	n/a	n/a	n/a	j	11	0.12	1	j	1	0.890404924934046
9	3	n/a	n/a	n/a	f	11	0.11	1	f	1	0.7745584582244192
9	4	n/a	n/a	n/a	f	11	0.1	0	f	1	0.8665836645013769
9	5	n/a	n/a	n/a	f	11	0.11	0	f	1	0.8725342754569283
9	6	n/a	n/a	n/a	f	11	0.12	1	f	1	0.8760757898917291
9	7	n/a	n/a	n/a	f	11	0.11	1	f	1	0.9284104895195924
9	8	n/a	n/a	n/a	j	11	0.1	1	j	1	0.9002112307225616
9	9	n/a	n/a	n/a	f	11	0.09000000000000001	1	f	1	0.8489624776802884
9	10	n/a	n/a	n/a	f	11	0.08000000000000002	0	f	1	0.9730506203923142
9	11	n/a	n/a	n/a	f	11	0.09000000000000001	1	f	1	0.7951560909232285
9	12	n/a	n/a	n/a	f	11	0.08000000000000002	0	f	1	0.8950332412550779
9	13	n/a	n/a	n/a	f	11	0.09000000000000001	0	f	1	0.9260880634537898
9	14	n/a	n/a	n/a	j	11	0.1	1	j	1	0.9149566120295276
9	15	n/a	n/a	n/a	f	11	0.09000000000000001	1	f	1	0.9476219651442079
9	16	n/a	n/a	n/a	f	11	0.08000000000000002	1	f	1	0.8815636832550808
9	17	n/a	n/a	n/a	f	11	0.07000000000000002	0	f	1	0.9039223797653904
9	18	n/a	n/a	n/a	f	11	0.08000000000000002	0	f	1	0.8843952982415431
9	19	n/a	n/a	n/a	f	11	0.09000000000000001	0	f	1	0.8916548041233909
9	20	n/a	n/a	n/a	j	11	0.1	1	j	1	1.018769570345285
9	21	n/a	n/a	n/a	f	11	0.09000000000000001	1	f	1	0.8258228917775341
9	22	n/a	n/a	n/a	f	11	0.08000000000000002	0	f	1	0.8704330871305501
9	23	n/a	n/a	n/a	f	11	0.09000000000000001	0	f	1	0.8984738302269761
9	24	n/a	n/a	n/a	f	11	0.1	1	f	1	0.9125452347070677
9	25	n/a	n/a	n/a	f	11	0.09000000000000001	1	f	1	0.8472801015186633
9	26	n/a	n/a	n/a	j	11	0.08000000000000002	0	j	1	0.9062701797474801
9	27	n/a	n/a	n/a	f	11	0.09000000000000001	1	f	1	0.8472219410814432
9	28	n/a	n/a	n/a	f	11	0.08000000000000002	0	f	1	0.9811588695101818
9	29	n/a	n/a	n/a	f	11	0.09000000000000001	1	f	1	1.033261212491198
9	30	n/a	n/a	n/a	f	11	0.08000000000000002	1	f	1	0.9032150462189747
9	31	n/a	n/a	n/a	f	11	0.07000000000000002	0	f	1	0.9410147684748154
9	32	n/a	n/a	n/a	j	11	0.08000000000000002	1	j	1	0.9951096766135379
9	33	n/a	n/a	n/a	f	11	0.07000000000000002	1	f	1	0.9508920642074372
9	34	n/a	n/a	n/a	f	11	0.06000000000000002	1	f	1	1.020873324572676
9	35	n/a	n/a	n/a	f	11	0.05000000000000002	1	f	1	0.9769120172286421
9	36	n/a	n/a	n/a	f	11	0.04000000000000001	1	f	1	1.100718480964133
9	37	n/a	n/a	n/a	f	11	0.03000000000000001	2	f	1	0.9695233609663774
9	38	n/a	n/a	n/a	j	11	0.04000000000000001	1	j	1	0.9596543331381326
9	39	n/a	n/a	n/a	f	11	0.03000000000000001	1	f	1	0.7945593762460703
9	40	n/a	n/a	n/a	f	11	0.02000000000000001	0	f	1	1.026366634839178
9	41	n/a	n/a	n/a	f	11	0.03000000000000001	2	f	1	0.8474771057426551
9	42	n/a	n/a	n/a	f	11	0.04000000000000001	0	f	1	0.9013835626637956
9	43	n/a	n/a	n/a	f	11	0.05000000000000002	0	f	1	0.9924542535381988
9	44	n/a	n/a	n/a	j	11	0.06000000000000002	1	j	1	1.108314405058081
9	45	n/a	n/a	n/a	f	11	0.05000000000000002	2	f	1	1.080353490010566
9	46	n/a	n/a	n/a	f	11	0.06000000000000002	2	f	1	0.9071956149318794
9	47	n/a	n/a	n/a	f	11	0.07000000000000002	0	f	1	0.8559423002852782
9	48	n/a	n/a	n/a	f	11	0.08000000000000002	0	f	1	0.8430825715695391
9	49	n/a	n/a	n/a	f	11	0.09000000000000001	0	f	1	0.9040971461754452
9	50	n/a	n/a	n/a	j	11	0.1	1	j	1	0.8999135861358809
9	51	n/a	n/a	n/a	f	11	0.09000000000000001	1	f	1	0.9120329096840578
9	52	n/a	n/a	n/a	f	11	0.08000000000000002	1	f	1	0.8939760897883389
9	53	n/a	n/a	n/a	f	11	0.07000000000000002	0	f	1	0.9158558179960892
9	54	n/a	n/a	n/a	f	11	0.08000000000000002	1	f	1	0.8544811618630774
9	55	n/a	n/a	n/a	f	11	0.07000000000000002	0	f	1	1.010721477366133
9	56	n/a	n/a	n/a	j	11	0.08000000000000002	1	j	1	0.8786516700174616
9	57	n/a	n/a	n/a	f	11	0.07000000000000002	0	f	1	0.8053621071640009
9	58	n/a	n/a	n/a	f	11	0.08000000000000002	0	f	1	0.9896742416840425
9	59	n/a	n/a	n/a	f	11	0.09000000000000001	1	f	1	0.8755466439579322
9	60	n/a	n/a	n/a	f	11	0.08000000000000002	0	f	1	0.8404405482015136
9	61	n/a	n/a	n/a	f	11	0.09000000000000001	0	f	1	0.9403633145639105
9	62	n/a	n/a	n/a	j	11	0.1	1	j	1	0.9125167246893398
9	63	n/a	n/a	n/a	f	11	0.09000000000000001	1	f	1	0.8829424277255384
9	64	n/a	n/a	n/a	f	11	0.08000000000000002	0	f	1	0.9284193276253063
9	65	n/a	n/a	n/a	f	11	0.09000000000000001	1	f	1	0.9012241916625499
9	66	n/a	n/a	n/a	f	11	0.08000000000000002	0	f	1	0.9359770482951717
9	67	n/a	n/a	n/a	f	11	0.09000000000000001	1	f	1	0.8430902692743985
9	68	n/a	n/a	n/a	j	11	0.08000000000000002	0	j	1	0.8390746332397612
9	69	n/a	n/a	n/a	f	11	0.09000000000000001	0	f	1	0.7629602978040566
9	70	n/a	n/a	n/a	f	11	0.1	0	f	1	0.921062602582424
9	71	n/a	n/a	n/a	f	11	0.11	1	f	1	1.036834373046077
10	0	f	1	1.319574208583617	f	9	0.1	1	f	1	0.9570191521752349
10	1	n/a	n/a	n/a	j	9	0.09000000000000001	1	j	1	0.9431065484941428
10	2	n/a	n/a	n/a	f	9	0.08000000000000002	1	f	1	0.9709699592795005
10	3	n/a	n/a	n/a	f	9	0.07000000000000002	1	f	1	0.9280039366631172
10	4	n/a	n/a	n/a	f	9	0.06000000000000002	1	f	1	1.018851108997296
10	5	n/a	n/a	n/a	j	9	0.05000000000000002	1	j	1	0.965756617389161
10	6	n/a	n/a	n/a	f	9	0.04000000000000001	1	f	1	0.8267942280890566
10	7	n/a	n/a	n/a	f	9	0.03000000000000001	0	f	1	0.9827371841047352
10	8	n/a	n/a	n/a	f	9	0.04000000000000001	1	f	1	1.026617237897881
10	9	n/a	n/a	n/a	j	9	0.03000000000000001	2	j	1	0.9287024321047284
10	10	n/a	n/a	n/a	f	9	0.04000000000000001	0	f	1	1.011486971349768
10	11	n/a	n/a	n/a	f	9	0.05000000000000002	1	f	1	0.9523124333036321
10	12	n/a	n/a	n/a	f	9	0.04000000000000001	1	f	1	0.9814188808732069
10	13	n/a	n/a	n/a	j	9	0.03000000000000001	1	j	1	0.9684981407190207
10	14	n/a	n/a	n/a	f	9	0.02000000000000001	1	f	1	0.9792675149155912
10	15	n/a	n/a	n/a	f	9	0.01000000000000001	0	f	1	1.111216724888436
10	16	n/a	n/a	n/a	f	9	0.02000000000000001	2	f	1	0.9072132911423978
10	17	n/a	n/a	n/a	j	9	0.03000000000000001	0	j	1	0.9362478934663159
10	18	n/a	n/a	n/a	f	9	0.04000000000000001	0	f	1	1.04408504082221
10	19	n/a	n/a	n/a	f	9	0.05000000000000002	2	f	1	1.000186170417692
10	20	n/a	n/a	n/a	f	9	0.06000000000000002	1	f	1	0.8515460555108803
10	21	n/a	n/a	n/a	j	9	0.05000000000000002	0	j	1	0.9185611336042712
10	22	n/a	n/a	n/a	f	9	0.06000000000000002	0	f	1	1.049921041505513
10	23	n/a	n/a	n/a	f	9	0.07000000000000002	1	f	1	0.8868106669660847
10	24	n/a	n/a	n/a	f	9	0.06000000000000002	0	f	1	0.9147336636888213
10	25	n/a	n/a	n/a	j	9	0.07000000000000002	0	j	1	0.9187387510164626
10	26	n/a	n/a	n/a	f	9	0.08000000000000002	1	f	1	0.9636249233435592
10	27	n/a	n/a	n/a	f	9	0.07000000000000002	1	f	1	0.9665842632120984
10	28	n/a	n/a	n/a	f	9	0.06000000000000002	1	f	1	1.019545327935703
10	29	n/a	n/a	n/a	j	9	0.05000000000000002	1	j	1	0.9114986319464151
10	30	n/a	n/a	n/a	f	9	0.04000000000000001	0	f	1	0.9813564439336915
10	31	n/a	n/a	n/a	f	9	0.05000000000000002	1	f	1	0.9453300447976289
10	32	n/a	n/a	n/a	f	9	0.04000000000000001	0	f	1	1.021301830143784
10	33	n/a	n/a	n/a	j	9	0.05000000000000002	1	j	1	0.9239449654014606
10	34	n/a	n/a	n/a	f	9	0.04000000000000001	0	f	1	0.9589050898657661
10	35	n/a	n/a	n/a	f	9	0.05000000000000002	1	f	1	0.9238383379351944
10	36	n/a	n/a	n/a	f	9	0.04000000000000001	0	f	1	1.096213613020154
10	37	n/a	n/a	n/a	j	9	0.05000000000000002	2	j	1	0.9089327303272512
10	38	n/a	n/a	n/a	f	9	0.06000000000000002	0	f	1	0.9618319283117671
10	39	n/a	n/a	n/a	f	9	0.07000000000000002	1	f	1	0.95298897603152
10	40	n/a	n/a	n/a	f	9	0.06000000000000002	1	f	1	0.8650449788301557
10	41	n/a	n/a	n/a	j	9	0.05000000000000002	0	j	1	0.9017507716953332
10	42	n/a	n/a	n/a	f	9	0.06000000000000002	0	f	1	0.9143319575341593
10	43	n/a	n/a	n/a	f	9	0.07000000000000002	0	f	1	0.9276609611470121
10	44	n/a	n/a	n/a	f	9	0.08000000000000002	1	f	1	1.011311634738377
10	45	n/a	n/a	n/a	j	9	0.07000000000000002	1	j	1	0.9355904524509242
10	46	n/a	n/a	n/a	f	9	0.06000000000000002	1	f	1	0.8951957483586739
10	47	n/a	n/a	n/a	f	9	0.05000000000000002	0	f	1	0.9274722248283069
10	48	n/a	n/a	n/a	f	9	0.06000000000000002	1	f	1	0.9230640058458448
10	49	n/a	n/a	n/a	j	9	0.05000000000000002	0	j	1	0.9293461883107739
10	50	n/a	n/a	n/a	f	9	0.06000000000000002	1	f	1	0.9243218678393532
10	51	n/a	n/a	n/a	f	9	0.05000000000000002	0	f	1	1.034917644537018
10	52	n/a	n/a	n/a	f	9	0.06000000000000002	1	f	1	1.023163819419096
10	53	n/a	n/a	n/a	j	9	0.05000000000000002	1	j	1	0.9631847286664197
10	54	n/a	n/a	n/a	f	9	0.04000000000000001	1	f	1	0.984222556043278
10	55	n/a	n/a	n/a	f	9	0.03000000000000001	1	f	1	0.9800161879884399
10	56	n/a	n/a	n/a	f	9	0.02000000000000001	1	f	1	1.118986845192921
10	57	n/a	n/a	n/a	j	9	0.01000000000000001	2	j	1	0.9868785493190444
10	58	n/a	n/a	n/a	f	9	0.02000000000000001	1	f	1	0.9840380962259587
10	59	n/a	n/a	n/a	f	9	0.01000000000000001	1	f	1	0.9178021969255497
10	60	n/a	n/a	n/a	f	9	1.040834085586084e-17	0	f	1	1.026758647587485
10	61	n/a	n/a	n/a	j	9	0.01000000000000001	2	j	1	0.8792971368238796
10	62	n/a	n/a	n/a	f	9	0.02000000000000001	0	f	1	0.9402720825055439
10	63	n/a	n/a	n/a	f	9	0.03000000000000001	0	f	1	1.079578302622394
10	64	n/a	n/a	n/a	f	9	0.04000000000000001	2	f	1	0.8854644239163463
10	65	n/a	n/a	n/a	j	9	0.05000000000000002	0	j	1	0.8911062713768843
10	66	n/a	n/a	n/a	f	9	0.06000000000000002	0	f	1	1.009320495082648
10	67	n/a	n/a	n/a	f	9	0.07000000000000002	1	f	1	1.061314785096329
10	68	n/a	n/a	n/a	f	9	0.06000000000000002	2	f	1	1.073527336403458
10	69	n/a	n/a	n/a	j	9	0.07000000000000002	2	j	1	0.8563708058554766
10	70	n/a	n/a	n/a	f	9	0.08000000000000002	0	f	1	0.9112121062662482
10	71	n/a	n/a	n/a	f	9	0.09000000000000001	1	f	1	0.8691450045171223
11	0	j	1	1.064853448528993	j	12	0.1	0	j	1	0.9143236896297822
11	1	n/a	n/a	n/a	j	12	0.11	1	j	1	1.038232504329244
11	2	n/a	n/a	n/a	f	12	0.1	1	f	1	1.017309002123511
11	3	n/a	n/a	n/a	j	12	0.09000000000000001	1	j	1	0.8450722857251094
11	4	n/a	n/a	n/a	j	12	0.08000000000000002	0	j	1	0.9051694079525987
11	5	n/a	n/a	n/a	j	12	0.09000000000000001	1	j	1	0.8540686219030249
11	6	n/a	n/a	n/a	j	12	0.08000000000000002	0	j	1	0.8680068845987989
11	7	n/a	n/a	n/a	j	12	0.09000000000000001	0	j	1	0.9367134620597426
11	8	n/a	n/a	n/a	f	12	0.1	1	f	1	0.9818693391580382
11	9	n/a	n/a	n/a	j	12	0.09000000000000001	1	j	1	0.9126578492787303
11	10	n/a	n/a	n/a	j	12	0.08000000000000002	1	j	1	0.9567676938158911
11	11	n/a	n/a	n/a	j	12	0.07000000000000002	1	j	1	1.017725248386341
11	12	n/a	n/a	n/a	j	12	0.06000000000000002	1	j	1	0.9176445365255859
11	13	n/a	n/a	n/a	j	12	0.05000000000000002	0	j	1	0.9795865420173868
11	14	n/a	n/a	n/a	f	12	0.06000000000000002	1	f	1	0.9603417096714111
11	15	n/a	n/a	n/a	j	12	0.05000000000000002	1	j	1	0.9094932372809126
11	16	n/a	n/a	n/a	j	12	0.04000000000000001	0	j	1	0.9845230516320953
11	17	n/a	n/a	n/a	j	12	0.05000000000000002	1	j	1	1.005307995149451
11	18	n/a	n/a	n/a	j	12	0.04000000000000001	1	j	1	0.908359108764671
11	19	n/a	n/a	n/a	j	12	0.03000000000000001	0	j	1	0.8643920994172731
11	20	n/a	n/a	n/a	f	12	0.04000000000000001	0	f	1	0.9081809211529617
11	21	n/a	n/a	n/a	j	12	0.05000000000000002	0	j	1	0.9293028530837546
11	22	n/a	n/a	n/a	j	12	0.06000000000000002	1	j	1	0.9661241115209123
11	23	n/a	n/a	n/a	j	12	0.05000000000000002	1	j	1	0.9539899627625346
11	24	n/a	n/a	n/a	j	12	0.04000000000000001	1	j	1	0.9430500986591142
11	25	n/a	n/a	n/a	j	12	0.03000000000000001	0	j	1	0.9639784475666602
11	26	n/a	n/a	n/a	f	12	0.04000000000000001	0	j	0	0.9360597273471285
11	27	n/a	n/a	n/a	j	12	0.03000000000000001	0	f	0	0.8947757957930662
11	28	n/a	n/a	n/a	j	12	0.04000000000000001	0	j	1	0.8587667877673084
11	29	n/a	n/a	n/a	j	12	0.05000000000000002	0	j	1	0.8488644032177035
11	30	n/a	n/a	n/a	j	12	0.06000000000000002	0	j	1	0.9967139353266248
11	31	n/a	n/a	n/a	j	12	0.07000000000000002	1	j	1	1.120763304413231
11	32	n/a	n/a	n/a	f	12	0.06000000000000002	2	f	1	1.029664673721527
11	33	n/a	n/a	n/a	j	12	0.07000000000000002	1	j	1	0.9375120276636153
11	34	n/a	n/a	n/a	j	12	0.06000000000000002	1	j	1	0.9255007570827729
11	35	n/a	n/a	n/a	j	12	0.05000000000000002	0	j	1	0.8913297899180179
11	36	n/a	n/a	n/a	j	12	0.06000000000000002	0	j	1	1.038316038681842
11	37	n/a	n/a	n/a	j	12	0.07000000000000002	1	j	1	1.034281015835404
11	38	n/a	n/a	n/a	f	12	0.06000000000000002	1	f	1	0.9658618193552684
11	39	n/a	n/a	n/a	j	12	0.05000000000000002	1	j	1	0.8501681663410636
11	40	n/a	n/a	n/a	j	12	0.04000000000000001	0	j	1	0.9990933814278833
11	41	n/a	n/a	n/a	j	12	0.05000000000000002	1	j	1	0.892119232315963
11	42	n/a	n/a	n/a	j	12	0.04000000000000001	0	j	1	1.038976900897978
11	43	n/a	n/a	n/a	j	12	0.05000000000000002	2	j	1	0.954927372154998
11	44	n/a	n/a	n/a	f	12	0.06000000000000002	1	f	1	1.006908832659974
11	45	n/a	n/a	n/a	j	12	0.05000000000000002	1	j	1	0.9719492783970054
11	46	n/a	n/a	n/a	j	12	0.04000000000000001	1	j	1	0.8705362933951619
11	47	n/a	n/a	n/a	j	12	0.03000000000000001	0	j	1	0.9957300546047918
11	48	n/a	n/a	n/a	j	12	0.04000000000000001	1	j	1	0.9612959399746615
11	49	n/a	n/a	n/a	j	12	0.03000000000000001	1	j	1	0.9246408949402394
11	50	n/a	n/a	n/a	f	12	0.02000000000000001	0	f	1	0.9523004590964774
11	51	n/a	n/a	n/a	j	12	0.03000000000000001	0	j	1	0.9481248818610766
11	52	n/a	n/a	n/a	j	12	0.04000000000000001	1	j	1	0.9294114762515164
11	53	n/a	n/a	n/a	j	12	0.03000000000000001	0	j	1	0.9811540228065496
11	54	n/a	n/a	n/a	j	12	0.04000000000000001	1	j	1	0.9901609076905515
11	55	n/a	n/a	n/a	j	12	0.03000000000000001	1	j	1	0.9162655069549146
11	56	n/a	n/a	n/a	f	12	0.02000000000000001	0	f	1	0.967247691330158
11	57	n/a	n/a	n/a	j	12	0.03000000000000001	1	j	1	1.045327507406
11	58	n/a	n/a	n/a	j	12	0.02000000000000001	2	j	1	0.889362028476171
11	59	n/a	n/a	n/a	j	12	0.03000000000000001	0	j	1	0.7970326203067088
11	60	n/a	n/a	n/a	j	12	0.04000000000000001	0	j	1	0.9931675741881918
11	61	n/a	n/a	n/a	j	12	0.05000000000000002	1	j	1	1.0679730146976
11	62	n/a	n/a	n/a	f	12	0.04000000000000001	2	f	1	0.9669318003307126
11	63	n/a	n/a	n/a	j	12	0.05000000000000002	1	j	1	1.018831151985069
11	64	n/a	n/a	n/a	j	12	0.04000000000000001	1	j	1	0.9418270188871247
11	65	n/a	n/a	n/a	j	12	0.03000000000000001	0	j	1	0.9866912385014075
11	66	n/a	n/a	n/a	j	12	0.04000000000000001	1	j	1	0.9436328434267125
11	67	n/a	n/a	n/a	j	12	0.03000000000000001	0	j	1	1.02769149537562
11	68	n/a	n/a	n/a	f	12	0.04000000000000001	2	f	1	0.9284007961141469
11	69	n/a	n/a	n/a	j	12	0.05000000000000002	0	j	1	0.8864776699565482
11	70	n/a	n/a	n/a	j	12	0.06000000000000002	0	j	1	0.9934301514540493
11	71	n/a	n/a	n/a	j	12	0.07000000000000002	1	j	1	1.029276652377121
12	0	j	1	1.402863090046594	j	8	0.02000000000000001	2	j	1	0.5952706441748887
12	1	n/a	n/a	n/a	j	8	0.03000000000000001	1	j	1	0.6060223421609408
12	2	n/a	n/a	n/a	f	8	0.02000000000000001	2	f	1	0.6171677634947628
12	3	n/a	n/a	n/a	j	8	0.03000000000000001	1	j	1	0.6470522494546458
12	4	n/a	n/a	n/a	j	8	0.02000000000000001	2	j	1	0.570012478834542
12	5	n/a	n/a	n/a	j	8	0.03000000000000001	1	j	1	0.5909499509489251
12	6	n/a	n/a	n/a	j	8	0.02000000000000001	1	j	1	0.5649482443395755
12	7	n/a	n/a	n/a	j	8	0.01000000000000001	0	j	1	0.5775952883204809
12	8	n/a	n/a	n/a	f	8	0.02000000000000001	1	f	1	0.5248973710631617
12	9	n/a	n/a	n/a	j	8	0.01000000000000001	0	j	1	0.5359797852561314
12	10	n/a	n/a	n/a	j	8	0.02000000000000001	0	j	1	0.5798840725647096
12	11	n/a	n/a	n/a	j	8	0.03000000000000001	1	j	1	0.5439871089101871
12	12	n/a	n/a	n/a	j	8	0.02000000000000001	0	j	1	0.5628142694922644
12	13	n/a	n/a	n/a	j	8	0.03000000000000001	1	j	1	0.597775534356515
12	14	n/a	n/a	n/a	f	8	0.02000000000000001	1	f	1	0.5456743317754444
12	15	n/a	n/a	n/a	j	8	0.01000000000000001	0	j	1	0.5907053349937996
12	16	n/a	n/a	n/a	j	8	0.02000000000000001	1	j	1	0.5586127481401491
12	17	n/a	n/a	n/a	j	8	0.01000000000000001	0	j	1	0.5135763280177343
12	18	n/a	n/a	n/a	j	8	0.02000000000000001	0	j	1	0.5736284044169224
12	19	n/a	n/a	n/a	j	8	0.03000000000000001	1	j	1	0.5767111926625148
12	20	n/a	n/a	n/a	f	8	0.02000000000000001	1	f	1	0.5551661720646734
12	21	n/a	n/a	n/a	j	8	0.01000000000000001	0	j	1	0.5282564213821388
12	22	n/a	n/a	n/a	j	8	0.02000000000000001	0	j	1	0.5886580306014366
12	23	n/a	n/a	n/a	j	8	0.03000000000000001	1	j	1	0.5120387827473678
12	24	n/a	n/a	n/a	j	8	0.02000000000000001	0	j	1	0.5963323572459558
12	25	n/a	n/a	n/a	j	8	0.03000000000000001	1	j	1	0.5680877675195006
12	26	n/a	n/a	n/a	f	8	0.02000000000000001	1	f	1	0.5149140180619725
12	27	n/a	n/a	n/a	j	8	0.01000000000000001	0	j	1	0.5902722678210921
12	28	n/a	n/a	n/a	j	8	0.02000000000000001	1	j	1	0.5933599027694072
12	29	n/a	n/a	n/a	j	8	0.01000000000000001	1	j	1	0.5478584842530836
12	30	n/a	n/a	n/a	j	8	1.040834085586084e-17	0	j	1	0.6163281434646706
12	31	n/a	n/a	n/a	j	8	0.01000000000000001	2	j	1	0.5802906254211848
12	32	n/a	n/a	n/a	f	8	0.02000000000000001	1	f	1	0.552303766258774
12	33	n/a	n/a	n/a	j	8	0.01000000000000001	0	j	1	0.5811045864356856
12	34	n/a	n/a	n/a	j	8	0.02000000000000001	1	j	1	0.5601656888202342
12	35	n/a	n/a	n/a	j	8	0.01000000000000001	0	j	1	0.5066729122609104
12	36	n/a	n/a	n/a	j	8	0.02000000000000001	0	j	1	0.5998470722634011
12	37	n/a	n/a	n/a	j	8	0.03000000000000001	1	j	1	0.5959603015107859
12	38	n/a	n/a	n/a	f	8	0.02000000000000001	1	f	1	0.5677718765209647
12	39	n/a	n/a	n/a	j	8	0.01000000000000001	0	j	1	0.6186180681097539
12	40	n/a	n/a	n/a	j	8	0.02000000000000001	2	j	1	0.5908393320778487
12	41	n/a	n/a	n/a	j	8	0.03000000000000001	1	j	1	0.5787804497686011
12	42	n/a	n/a	n/a	j	8	0.02000000000000001	1	f	0	0.6338170438020825
12	43	n/a	n/a	n/a	j	8	0.01000000000000001	1	f	0	0.702381356272781
12	44	n/a	n/a	n/a	f	8	0.02000000000000001	1	j	0	0.6176404595926215
12	45	n/a	n/a	n/a	j	8	0.03000000000000001	1	j	1	0.6541783284519624
12	46	n/a	n/a	n/a	j	8	0.02000000000000001	2	j	1	0.6255696657963199
12	47	n/a	n/a	n/a	j	8	0.03000000000000001	2	j	1	0.5973530158898939
12	48	n/a	n/a	n/a	j	8	0.04000000000000001	1	j	1	0.6675426844867616
12	49	n/a	n/a	n/a	j	8	0.03000000000000001	2	j	1	0.6465037167090486
12	50	n/a	n/a	n/a	f	8	0.04000000000000001	2	f	1	0.6175001903047814
12	51	n/a	n/a	n/a	j	8	0.05000000000000002	1	j	1	0.6444367404037621
12	52	n/a	n/a	n/a	j	8	0.04000000000000001	2	j	1	0.6165240072887173
12	53	n/a	n/a	n/a	j	8	0.05000000000000002	1	j	1	0.6283810386712503
12	54	n/a	n/a	n/a	j	8	0.04000000000000001	2	j	1	0.6644544793380192
12	55	n/a	n/a	n/a	j	8	0.05000000000000002	2	j	1	0.6362891474618664
12	56	n/a	n/a	n/a	f	8	0.06000000000000002	1	f	1	0.5919805880994318
12	57	n/a	n/a	n/a	j	8	0.05000000000000002	1	j	1	0.5870771501049603
12	58	n/a	n/a	n/a	j	8	0.04000000000000001	1	j	1	0.6300043990950144
12	59	n/a	n/a	n/a	j	8	0.03000000000000001	2	j	1	0.6418403330653746
12	60	n/a	n/a	n/a	j	8	0.04000000000000001	2	j	1	0.6082409917607947
12	61	n/a	n/a	n/a	j	8	0.05000000000000002	1	j	1	0.6520412175032106
12	62	n/a	n/a	n/a	f	8	0.04000000000000001	2	f	1	0.5531145911709245
12	63	n/a	n/a	n/a	j	8	0.05000000000000002	1	j	1	0.5959508932046447
12	64	n/a	n/a	n/a	j	8	0.04000000000000001	1	j	1	0.5852331221412896
12	65	n/a	n/a	n/a	j	8	0.03000000000000001	1	j	1	0.5569175424707282
12	66	n/a	n/a	n/a	j	8	0.02000000000000001	0	j	1	0.5778265045664739
12	67	n/a	n/a	n/a	j	8	0.03000000000000001	1	j	1	0.5976748939929166
12	68	n/a	n/a	n/a	f	8	0.02000000000000001	1	j	0	0.544599504096368
12	69	n/a	n/a	n/a	j	8	0.01000000000000001	0	j	1	0.621810049724445
12	70	n/a	n/a	n/a	j	8	0.02000000000000001	2	j	1	0.5769176051926479
12	71	n/a	n/a	n/a	j	8	0.03000000000000001	1	j	1	1.660741334593695
13	0	f	1	1.340132212357275	f	7	0.06000000000000002	2	f	1	0.6366440971860357
13	1	n/a	n/a	n/a	f	7	0.07000000000000002	1	f	1	0.6004221193270496
13	2	n/a	n/a	n/a	j	7	0.06000000000000002	1	j	1	0.5584308542256622
13	3	n/a	n/a	n/a	f	7	0.05000000000000002	1	f	1	0.5723825166305687
13	4	n/a	n/a	n/a	f	7	0.04000000000000001	1	f	1	0.632459966946044
13	5	n/a	n/a	n/a	f	7	0.03000000000000001	2	f	1	0.556424319159305
13	6	n/a	n/a	n/a	f	7	0.04000000000000001	1	f	1	0.5695132684195414
13	7	n/a	n/a	n/a	f	7	0.03000000000000001	1	f	1	0.6277438397692094
13	8	n/a	n/a	n/a	j	7	0.02000000000000001	2	j	1	0.5870825670081103
13	9	n/a	n/a	n/a	f	7	0.03000000000000001	1	f	1	0.599979928947505
13	10	n/a	n/a	n/a	f	7	0.02000000000000001	1	f	1	0.580101604002266
13	11	n/a	n/a	n/a	f	7	0.01000000000000001	1	f	1	0.5282552809821937
13	12	n/a	n/a	n/a	f	7	1.040834085586084e-17	0	f	1	0.5391301422450852
13	13	n/a	n/a	n/a	f	7	0.01000000000000001	0	f	1	0.6081876780272069
13	14	n/a	n/a	n/a	j	7	0.02000000000000001	2	j	1	0.5970359844895938
13	15	n/a	n/a	n/a	f	7	0.03000000000000001	1	f	1	0.6830561256765577
13	16	n/a	n/a	n/a	f	7	0.02000000000000001	2	f	1	0.6225926497181717
13	17	n/a	n/a	n/a	f	7	0.03000000000000001	2	f	1	0.6429066077389507
13	18	n/a	n/a	n/a	f	7	0.04000000000000001	2	f	1	0.5920039663133139
13	19	n/a	n/a	n/a	f	7	0.05000000000000002	1	f	1	0.6278553139400174
13	20	n/a	n/a	n/a	j	7	0.04000000000000001	2	j	1	0.58582841131647
13	21	n/a	n/a	n/a	f	7	0.05000000000000002	1	f	1	0.5827538909752548
13	22	n/a	n/a	n/a	f	7	0.04000000000000001	1	f	1	1.203361388141275
13	23	n/a	n/a	n/a	f	7	0.03000000000000001	2	f	1	0.6327687304401479
13	24	n/a	n/a	n/a	f	7	0.04000000000000001	2	f	1	0.6122919802173783
13	25	n/a	n/a	n/a	f	7	0.05000000000000002	1	f	1	0.6095863795098921
13	26	n/a	n/a	n/a	j	7	0.04000000000000001	1	j	1	0.5885049318058009
13	27	n/a	n/a	n/a	f	7	0.03000000000000001	1	f	1	0.5854991206088016
13	28	n/a	n/a	n/a	f	7	0.02000000000000001	1	f	1	0.5654736839705947
13	29	n/a	n/a	n/a	f	7	0.01000000000000001	0	f	1	0.5525076128869841
13	30	n/a	n/a	n/a	f	7	0.02000000000000001	0	f	1	0.581456114957291
13	31	n/a	n/a	n/a	f	7	0.03000000000000001	1	f	1	0.5783393997908206
13	32	n/a	n/a	n/a	j	7	0.02000000000000001	1	j	1	0.5834814666350212
13	33	n/a	n/a	n/a	f	7	0.01000000000000001	1	f	1	0.6033577958787646
13	34	n/a	n/a	n/a	f	7	1.040834085586084e-17	2	f	1	0.5923811538514201
13	35	n/a	n/a	n/a	f	7	0.01000000000000001	1	f	1	0.5958545293433417
13	36	n/a	n/a	n/a	f	7	1.040834085586084e-17	2	f	1	0.6080596680458257
13	37	n/a	n/a	n/a	f	7	0.01000000000000001	2	f	1	0.5731140836924169
13	38	n/a	n/a	n/a	j	7	0.02000000000000001	1	j	1	0.5532283461425322
13	39	n/a	n/a	n/a	f	7	0.01000000000000001	0	f	1	0.6451189851350136
13	40	n/a	n/a	n/a	f	7	0.02000000000000001	2	f	1	0.6249264797916112
13	41	n/a	n/a	n/a	f	7	0.03000000000000001	2	f	1	0.5811177010427855
13	42	n/a	n/a	n/a	f	7	0.04000000000000001	1	f	1	0.5521224425438049
13	43	n/a	n/a	n/a	f	7	0.03000000000000001	0	f	1	0.5649291426270793
13	44	n/a	n/a	n/a	j	7	0.04000000000000001	1	j	1	0.5546757997562963
13	45	n/a	n/a	n/a	f	7	0.03000000000000001	0	f	1	0.6320052321580079
13	46	n/a	n/a	n/a	f	7	0.04000000000000001	2	f	1	0.5638209582275522
13	47	n/a	n/a	n/a	f	7	0.05000000000000002	1	f	1	0.5521794625810799
13	48	n/a	n/a	n/a	f	7	0.04000000000000001	1	f	1	0.5797224207626641
13	49	n/a	n/a	n/a	f	7	0.03000000000000001	1	f	1	0.6097922218395979
13	50	n/a	n/a	n/a	j	7	0.02000000000000001	2	j	1	1.308713887428894
13	51	n/a	n/a	n/a	f	7	0.03000000000000001	2	f	1	0.5766909505500735
13	52	n/a	n/a	n/a	f	7	0.04000000000000001	1	f	1	0.5482667477108407
13	53	n/a	n/a	n/a	f	7	0.03000000000000001	0	f	1	0.5615310335824688
13	54	n/a	n/a	n/a	f	7	0.04000000000000001	1	f	1	0.5965333528720294
13	55	n/a	n/a	n/a	f	7	0.03000000000000001	1	f	1	0.5305360824213494
13	56	n/a	n/a	n/a	j	7	0.02000000000000001	0	j	1	0.5606500740259435
13	57	n/a	n/a	n/a	f	7	0.03000000000000001	1	f	1	0.6533968688590903
13	58	n/a	n/a	n/a	f	7	0.02000000000000001	2	f	1	0.5925516437591796
13	59	n/a	n/a	n/a	f	7	0.03000000000000001	1	f	1	0.5393867324073653
13	60	n/a	n/a	n/a	f	7	0.02000000000000001	0	f	1	0.5742884113333275
13	61	n/a	n/a	n/a	f	7	0.03000000000000001	1	f	1	0.5702756263008268
13	62	n/a	n/a	n/a	j	7	0.02000000000000001	1	j	1	0.5172475630351983
13	63	n/a	n/a	n/a	f	7	0.01000000000000001	0	f	1	0.6422012698931212
13	64	n/a	n/a	n/a	f	7	0.02000000000000001	2	f	1	0.5900858123031867
13	65	n/a	n/a	n/a	f	7	0.03000000000000001	1	f	1	0.5472979773003317
13	66	n/a	n/a	n/a	f	7	0.02000000000000001	0	f	1	0.550782471698767
13	67	n/a	n/a	n/a	f	7	0.03000000000000001	0	f	1	0.6191158530245957
13	68	n/a	n/a	n/a	j	7	0.04000000000000001	1	j	1	0.5432258914297563
13	69	n/a	n/a	n/a	f	7	0.03000000000000001	0	f	1	0.6340471196472208
13	70	n/a	n/a	n/a	f	7	0.04000000000000001	2	f	1	0.5979967720959394
13	71	n/a	n/a	n/a	f	7	0.05000000000000002	1	f	1	0.6099533034412161
14	0	j	1	1.003632746492258	j	10	0.08000000000000002	0	j	1	0.9729898940540807
14	1	n/a	n/a	n/a	f	10	0.09000000000000001	1	f	1	0.9866228144574052
14	2	n/a	n/a	n/a	j	10	0.08000000000000002	1	j	1	0.9109586522063182
14	3	n/a	n/a	n/a	j	10	0.07000000000000002	0	j	1	0.923837482633644
14	4	n/a	n/a	n/a	j	10	0.08000000000000002	1	j	1	0.9599596754305821
14	5	n/a	n/a	n/a	f	10	0.07000000000000002	1	f	1	1.03639674426995
14	6	n/a	n/a	n/a	j	10	0.06000000000000002	1	j	1	0.9357107647274461
14	7	n/a	n/a	n/a	j	10	0.05000000000000002	0	j	1	0.8925309169762841
14	8	n/a	n/a	n/a	j	10	0.06000000000000002	0	j	1	0.9766665459746946
14	9	n/a	n/a	n/a	f	10	0.07000000000000002	1	f	1	0.9075120761317521
14	10	n/a	n/a	n/a	j	10	0.06000000000000002	0	j	1	1.014427209504902
14	11	n/a	n/a	n/a	j	10	0.07000000000000002	1	j	1	0.9709913417927964
14	12	n/a	n/a	n/a	j	10	0.06000000000000002	1	j	1	0.9304620704142508
14	13	n/a	n/a	n/a	f	10	0.05000000000000002	0	f	1	0.98927253553029
14	14	n/a	n/a	n/a	j	10	0.06000000000000002	1	j	1	1.011963943950832
14	15	n/a	n/a	n/a	j	10	0.05000000000000002	1	j	1	0.94619361324294
14	16	n/a	n/a	n/a	j	10	0.04000000000000001	0	j	1	1.039070128656931
14	17	n/a	n/a	n/a	f	10	0.05000000000000002	2	f	1	0.9160288738057716
14	18	n/a	n/a	n/a	j	10	0.06000000000000002	0	j	1	0.9681383442921287
14	19	n/a	n/a	n/a	j	10	0.07000000000000002	1	j	1	0.9399171327813747
14	20	n/a	n/a	n/a	j	10	0.06000000000000002	1	j	1	0.9437808104194119
14	21	n/a	n/a	n/a	f	10	0.05000000000000002	1	f	1	0.9228091262848466
14	22	n/a	n/a	n/a	j	10	0.04000000000000001	0	j	1	1.00092315438269
14	23	n/a	n/a	n/a	j	10	0.05000000000000002	1	j	1	0.9327551311616844
14	24	n/a	n/a	n/a	j	10	0.04000000000000001	0	j	1	0.9529017353761446
14	25	n/a	n/a	n/a	f	10	0.05000000000000002	1	f	1	0.9642800835572416
14	26	n/a	n/a	n/a	j	10	0.04000000000000001	1	j	1	0.9686418312094247
14	27	n/a	n/a	n/a	j	10	0.03000000000000001	1	j	1	0.981599349287535
14	28	n/a	n/a	n/a	j	10	0.02000000000000001	1	j	1	0.99451609803873
14	29	n/a	n/a	n/a	f	10	0.01000000000000001	1	f	1	0.9581849268106453
14	30	n/a	n/a	n/a	j	10	1.040834085586084e-17	0	j	1	1.048784061987135
14	31	n/a	n/a	n/a	j	10	0.01000000000000001	2	j	1	0.941359739692416
14	32	n/a	n/a	n/a	j	10	0.02000000000000001	0	j	1	0.97905739608359
14	33	n/a	n/a	n/a	f	10	0.03000000000000001	1	f	1	0.8432045944464335
14	34	n/a	n/a	n/a	j	10	0.02000000000000001	0	j	1	0.9350727105247643
14	35	n/a	n/a	n/a	j	10	0.03000000000000001	0	j	1	0.989076956806457
14	36	n/a	n/a	n/a	j	10	0.04000000000000001	1	j	1	0.993126804862186
14	37	n/a	n/a	n/a	f	10	0.03000000000000001	1	f	1	0.8845891663640941
14	38	n/a	n/a	n/a	j	10	0.02000000000000001	0	j	1	0.9090316600895676
14	39	n/a	n/a	n/a	j	10	0.03000000000000001	0	j	1	0.9610136907958804
14	40	n/a	n/a	n/a	j	10	0.04000000000000001	1	j	1	0.9108745476523836
14	41	n/a	n/a	n/a	f	10	0.03000000000000001	0	f	1	0.9137546296706205
14	42	n/a	n/a	n/a	j	10	0.04000000000000001	0	j	1	0.9586510656044993
14	43	n/a	n/a	n/a	j	10	0.05000000000000002	1	j	1	0.9543118408664668
14	44	n/a	n/a	n/a	j	10	0.04000000000000001	1	j	1	0.8952091480668969
14	45	n/a	n/a	n/a	f	10	0.03000000000000001	0	f	1	0.9314975542674802
14	46	n/a	n/a	n/a	j	10	0.04000000000000001	0	j	1	0.8794271425058469
14	47	n/a	n/a	n/a	j	10	0.05000000000000002	0	j	1	0.8613931306254017
14	48	n/a	n/a	n/a	j	10	0.06000000000000002	0	j	1	0.9373649159715569
14	49	n/a	n/a	n/a	f	10	0.07000000000000002	1	f	1	0.9270163496394161
14	50	n/a	n/a	n/a	j	10	0.06000000000000002	1	j	1	0.8934209997378275
14	51	n/a	n/a	n/a	j	10	0.05000000000000002	0	j	1	0.890867357426032
14	52	n/a	n/a	n/a	j	10	0.06000000000000002	0	j	1	1.009302248670792
14	53	n/a	n/a	n/a	f	10	0.07000000000000002	1	f	1	0.9170845997714423
14	54	n/a	n/a	n/a	j	10	0.06000000000000002	0	j	1	0.8991361179450905
14	55	n/a	n/a	n/a	j	10	0.07000000000000002	0	j	1	0.8811240587774591
14	56	n/a	n/a	n/a	j	10	0.08000000000000002	0	j	1	1.045904265070021
14	57	n/a	n/a	n/a	f	10	0.09000000000000001	1	f	1	1.009903239849336
14	58	n/a	n/a	n/a	j	10	0.08000000000000002	1	j	1	1.038864856527653
14	59	n/a	n/a	n/a	j	10	0.07000000000000002	1	j	1	0.9628086815291681
14	60	n/a	n/a	n/a	j	10	0.06000000000000002	1	j	1	0.9746266541869772
14	61	n/a	n/a	n/a	f	10	0.05000000000000002	1	f	1	0.9615955802628378
14	62	n/a	n/a	n/a	j	10	0.04000000000000001	1	j	1	1.022611580369812
14	63	n/a	n/a	n/a	j	10	0.03000000000000001	2	j	1	0.9257291223284483
14	64	n/a	n/a	n/a	j	10	0.04000000000000001	0	j	1	0.9864374993412639
14	65	n/a	n/a	n/a	f	10	0.05000000000000002	1	f	1	0.9924536833377715
14	66	n/a	n/a	n/a	j	10	0.04000000000000001	1	j	1	0.9803614443062543
14	67	n/a	n/a	n/a	j	10	0.03000000000000001	1	j	1	0.8743073134755832
14	68	n/a	n/a	n/a	j	10	0.02000000000000001	0	j	1	0.9503669096766316
14	69	n/a	n/a	n/a	f	10	0.03000000000000001	0	f	1	0.9721767883402208
14	70	n/a	n/a	n/a	j	10	0.04000000000000001	1	j	1	0.8813022463900779
14	71	n/a	n/a	n/a	j	10	0.03000000000000001	0	j	1	1.014099059198088
15	0	f	1	2.647399786574169	f	5	0.04000000000000001	2	f	1	0.5924193572764125
15	1	n/a	n/a	n/a	j	5	0.05000000000000002	1	j	1	0.9396551257159445
15	2	n/a	n/a	n/a	f	5	0.04000000000000001	2	f	1	0.5764640108063759
15	3	n/a	n/a	n/a	f	5	0.05000000000000002	1	f	1	0.5165949687225293
15	4	n/a	n/a	n/a	f	5	0.04000000000000001	0	f	1	0.5447346415812717
15	5	n/a	n/a	n/a	j	5	0.05000000000000002	1	j	1	0.4936341406328211
15	6	n/a	n/a	n/a	f	5	0.04000000000000001	0	f	1	0.505766863889221
15	7	n/a	n/a	n/a	f	5	0.05000000000000002	0	f	1	0.5174129211400214
15	8	n/a	n/a	n/a	f	5	0.06000000000000002	0	f	1	0.5866064497076877
15	9	n/a	n/a	n/a	j	5	0.07000000000000002	1	j	1	0.6076208988697545
15	10	n/a	n/a	n/a	f	5	0.06000000000000002	1	f	1	0.6033592213798329
15	11	n/a	n/a	n/a	f	5	0.05000000000000002	1	f	1	0.59100069878059
15	12	n/a	n/a	n/a	f	5	0.04000000000000001	1	f	1	0.610115525443689
15	13	n/a	n/a	n/a	j	5	0.03000000000000001	1	j	1	0.5354158571008156
15	14	n/a	n/a	n/a	f	5	0.02000000000000001	0	f	1	0.6060237676610996
15	15	n/a	n/a	n/a	f	5	0.03000000000000001	1	f	1	0.6142349379433654
15	16	n/a	n/a	n/a	f	5	0.02000000000000001	2	f	1	0.6898506331644967
15	17	n/a	n/a	n/a	j	5	0.03000000000000001	2	j	1	0.6128981031997682
15	18	n/a	n/a	n/a	f	5	0.04000000000000001	1	f	1	0.6172689740578789
15	19	n/a	n/a	n/a	f	5	0.03000000000000001	2	f	1	0.6120607639713853
15	20	n/a	n/a	n/a	f	5	0.04000000000000001	1	f	1	0.6321757220666768
15	21	n/a	n/a	n/a	j	5	0.03000000000000001	2	j	1	0.6189510651201999
15	22	n/a	n/a	n/a	f	5	0.04000000000000001	1	f	1	0.6546826706698994
15	23	n/a	n/a	n/a	f	5	0.03000000000000001	2	f	1	0.5969042682063446
15	24	n/a	n/a	n/a	f	5	0.04000000000000001	1	f	1	0.6729222397816557
15	25	n/a	n/a	n/a	j	5	0.03000000000000001	2	j	1	0.6278610159424716
15	26	n/a	n/a	n/a	f	5	0.04000000000000001	2	f	1	0.6810367611024049
15	27	n/a	n/a	n/a	f	5	0.05000000000000002	2	f	1	0.53983433969006
15	28	n/a	n/a	n/a	f	5	0.06000000000000002	1	f	1	0.6306632656114743
15	29	n/a	n/a	n/a	j	5	0.05000000000000002	1	j	1	1.122739333760364
15	30	n/a	n/a	n/a	f	5	0.04000000000000001	2	f	1	0.5917182959328784
15	31	n/a	n/a	n/a	f	5	0.05000000000000002	1	f	1	0.564555376291537
15	32	n/a	n/a	n/a	f	5	0.04000000000000001	1	f	1	0.60269864426391
15	33	n/a	n/a	n/a	j	5	0.03000000000000001	1	j	1	0.5282661147894032
15	34	n/a	n/a	n/a	f	5	0.02000000000000001	0	f	1	0.6475007120379814
15	35	n/a	n/a	n/a	f	5	0.03000000000000001	2	f	1	0.581164172372155
15	36	n/a	n/a	n/a	f	5	0.04000000000000001	1	f	1	0.6125422981758675
15	37	n/a	n/a	n/a	j	5	0.03000000000000001	1	j	1	0.5464192985446061
15	38	n/a	n/a	n/a	f	5	0.02000000000000001	0	f	1	0.5820283110178934
15	39	n/a	n/a	n/a	f	5	0.03000000000000001	1	f	1	0.6103669838021233
15	40	n/a	n/a	n/a	f	5	0.02000000000000001	2	f	1	0.6223671354755425
15	41	n/a	n/a	n/a	j	5	0.03000000000000001	2	j	1	0.6112778788774449
15	42	n/a	n/a	n/a	f	5	0.04000000000000001	1	f	1	0.6232406824274221
15	43	n/a	n/a	n/a	f	5	0.03000000000000001	2	f	1	0.5712215886978811
15	44	n/a	n/a	n/a	f	5	0.04000000000000001	1	f	1	0.5777786077360361
15	45	n/a	n/a	n/a	j	5	0.03000000000000001	1	j	1	0.5442790514944136
15	46	n/a	n/a	n/a	f	5	0.02000000000000001	0	f	1	0.6121026736973363
15	47	n/a	n/a	n/a	f	5	0.03000000000000001	1	f	1	0.6088265875296202
15	48	n/a	n/a	n/a	f	5	0.02000000000000001	2	f	1	0.5646825309713677
15	49	n/a	n/a	n/a	j	5	0.03000000000000001	1	j	1	0.5931343885267779
15	50	n/a	n/a	n/a	f	5	0.02000000000000001	1	f	1	0.6059502118159799
15	51	n/a	n/a	n/a	f	5	0.01000000000000001	2	f	1	0.59403444979489
15	52	n/a	n/a	n/a	f	5	0.02000000000000001	1	f	1	0.6240369672295856
15	53	n/a	n/a	n/a	j	5	0.01000000000000001	2	j	1	0.6048770947381854
15	54	n/a	n/a	n/a	f	5	0.02000000000000001	1	f	1	0.6188669605671748
15	55	n/a	n/a	n/a	f	5	0.01000000000000001	2	f	1	0.5679289667195917
15	56	n/a	n/a	n/a	f	5	0.02000000000000001	0	f	1	0.678676416712733
15	57	n/a	n/a	n/a	j	5	0.03000000000000001	2	j	1	0.5936683811642069
15	58	n/a	n/a	n/a	f	5	0.04000000000000001	1	f	1	0.6386945376798394
15	59	n/a	n/a	n/a	f	5	0.03000000000000001	2	f	1	0.6056585543310575
15	60	n/a	n/a	n/a	f	5	0.04000000000000001	1	f	1	0.6336197544769675
15	61	n/a	n/a	n/a	j	5	0.03000000000000001	2	j	1	0.5995374534677467
15	62	n/a	n/a	n/a	f	5	0.04000000000000001	1	f	1	0.6236036149566644
15	63	n/a	n/a	n/a	f	5	0.03000000000000001	2	f	1	0.5945214009025221
15	64	n/a	n/a	n/a	f	5	0.04000000000000001	1	f	1	0.5664872151101008
15	65	n/a	n/a	n/a	j	5	0.03000000000000001	1	j	1	0.5804420136173576
15	66	n/a	n/a	n/a	f	5	0.02000000000000001	1	f	1	0.5714037677134911
15	67	n/a	n/a	n/a	f	5	0.01000000000000001	0	f	1	0.582235578849577
15	68	n/a	n/a	n/a	f	5	0.02000000000000001	1	f	1	0.6253775082750508
15	69	n/a	n/a	n/a	j	5	0.01000000000000001	2	j	1	0.5592599255487585
15	70	n/a	n/a	n/a	f	5	0.02000000000000001	0	f	1	0.6102717603425845
15	71	n/a	n/a	n/a	f	5	0.03000000000000001	1	f	1	0.6072445666313797
16	0	j	1	0.0008695555488884565	j	2	0.04000000000000001	2	j	1	0.4021332335860279
16	1	n/a	n/a	n/a	f	2	0.05000000000000002	1	f	1	0.4131121564150817
16	2	n/a	n/a	n/a	j	2	0.04000000000000001	1	j	1	0.3932996896110126
16	3	n/a	n/a	n/a	j	2	0.03000000000000001	1	j	1	0.3902157609654751
16	4	n/a	n/a	n/a	j	2	0.02000000000000001	1	j	1	0.3849194549220556
16	5	n/a	n/a	n/a	f	2	0.01000000000000001	1	f	1	0.3743046050240082
16	6	n/a	n/a	n/a	j	2	1.040834085586084e-17	0	j	1	0.3938658985689472
16	7	n/a	n/a	n/a	j	2	0.01000000000000001	1	j	1	0.3908723466802257
16	8	n/a	n/a	n/a	j	2	1.040834085586084e-17	2	j	1	0.4119309863699527
16	9	n/a	n/a	n/a	f	2	0.01000000000000001	2	f	1	0.4012143557065428
16	10	n/a	n/a	n/a	j	2	0.02000000000000001	1	j	1	0.405101126459158
16	11	n/a	n/a	n/a	j	2	0.01000000000000001	2	j	1	0.3931021151865934
16	12	n/a	n/a	n/a	j	2	0.02000000000000001	1	j	1	0.3640592449573887
16	13	n/a	n/a	n/a	f	2	0.01000000000000001	0	f	1	0.3681498623391235
16	14	n/a	n/a	n/a	j	2	0.02000000000000001	1	j	1	0.3880050941706941
16	15	n/a	n/a	n/a	j	2	0.01000000000000001	1	j	1	0.3601203008711309
16	16	n/a	n/a	n/a	j	2	1.040834085586084e-17	0	j	1	0.3306837072950657
16	17	n/a	n/a	n/a	f	2	0.01000000000000001	0	f	1	0.4229646484336627
16	18	n/a	n/a	n/a	j	2	0.02000000000000001	2	j	1	0.3867147307564665
16	19	n/a	n/a	n/a	j	2	0.03000000000000001	1	j	1	0.3690735869222408
16	20	n/a	n/a	n/a	j	2	0.02000000000000001	1	j	1	0.3818563385893867
16	21	n/a	n/a	n/a	f	2	0.01000000000000001	1	f	1	0.3767909636935656
16	22	n/a	n/a	n/a	j	2	1.040834085586084e-17	0	j	1	0.3878805053909673
16	23	n/a	n/a	n/a	j	2	0.01000000000000001	1	j	1	0.3519889586405043
16	24	n/a	n/a	n/a	j	2	1.040834085586084e-17	0	j	1	0.363832020114387
16	25	n/a	n/a	n/a	f	2	0.01000000000000001	0	f	1	0.3919032689300366
16	26	n/a	n/a	n/a	j	2	0.02000000000000001	1	j	1	0.4427910851454726
16	27	n/a	n/a	n/a	j	2	0.01000000000000001	2	j	1	1.237699424012135
16	28	n/a	n/a	n/a	j	2	0.02000000000000001	2	j	1	0.400414649700906
16	29	n/a	n/a	n/a	f	2	0.03000000000000001	1	f	1	0.3642665127890723
16	30	n/a	n/a	n/a	j	2	0.02000000000000001	1	j	1	0.377642557929903
16	31	n/a	n/a	n/a	j	2	0.01000000000000001	0	j	1	0.3815783659138106
16	32	n/a	n/a	n/a	j	2	0.02000000000000001	1	j	1	0.3935679688811433
16	33	n/a	n/a	n/a	f	2	0.01000000000000001	1	f	1	0.3905607321830757
16	34	n/a	n/a	n/a	j	2	1.040834085586084e-17	2	j	1	0.3875517848837262
16	35	n/a	n/a	n/a	j	2	0.01000000000000001	1	j	1	0.3603204411983825
16	36	n/a	n/a	n/a	j	2	1.040834085586084e-17	0	j	1	0.3791324914709548
16	37	n/a	n/a	n/a	f	2	0.01000000000000001	1	f	1	0.3774826167291394
16	38	n/a	n/a	n/a	j	2	1.040834085586084e-17	0	j	1	0.3894491265818942
16	39	n/a	n/a	n/a	j	2	0.01000000000000001	1	j	1	0.3611207174035371
16	40	n/a	n/a	n/a	j	2	1.040834085586084e-17	0	j	1	0.3574010153561176
16	41	n/a	n/a	n/a	f	2	0.01000000000000001	0	f	1	0.3685244839753068
16	42	n/a	n/a	n/a	j	2	0.02000000000000001	1	j	1	0.4033340755440804
16	43	n/a	n/a	n/a	j	2	0.01000000000000001	2	j	1	0.3833166217109465
16	44	n/a	n/a	n/a	j	2	0.02000000000000001	1	j	1	0.3882767946415697
16	45	n/a	n/a	n/a	f	2	0.01000000000000001	1	f	1	0.4008602612830146
16	46	n/a	n/a	n/a	j	2	1.040834085586084e-17	2	j	1	0.3901838297451832
16	47	n/a	n/a	n/a	j	2	0.01000000000000001	1	j	1	0.3624142169192055
16	48	n/a	n/a	n/a	j	2	1.040834085586084e-17	0	j	1	0.3433532741901217
16	49	n/a	n/a	n/a	f	2	0.01000000000000001	0	f	1	0.4043210923673541
16	50	n/a	n/a	n/a	j	2	0.02000000000000001	2	j	1	0.3923006985805841
16	51	n/a	n/a	n/a	j	2	0.03000000000000001	1	j	1	0.3740947712913112
16	52	n/a	n/a	n/a	j	2	0.02000000000000001	1	j	1	0.3958139880987801
16	53	n/a	n/a	n/a	f	2	0.01000000000000001	2	f	1	0.3872011116618523
16	54	n/a	n/a	n/a	j	2	0.02000000000000001	1	j	1	0.3910419812864347
16	55	n/a	n/a	n/a	j	2	0.01000000000000001	1	j	1	0.3711223168156721
16	56	n/a	n/a	n/a	j	2	1.040834085586084e-17	0	j	1	0.369280284553497
16	57	n/a	n/a	n/a	f	2	0.01000000000000001	0	f	1	0.4051093943644446
16	58	n/a	n/a	n/a	j	2	0.02000000000000001	2	j	1	0.384104068407396
16	59	n/a	n/a	n/a	j	2	0.03000000000000001	1	j	1	0.3740280578485908
16	60	n/a	n/a	n/a	j	2	0.02000000000000001	1	j	1	0.4019556161738365
16	61	n/a	n/a	n/a	f	2	0.01000000000000001	2	f	1	0.3655979306295194
16	62	n/a	n/a	n/a	j	2	0.02000000000000001	1	j	1	0.3850275078902996
16	63	n/a	n/a	n/a	j	2	0.01000000000000001	1	j	1	0.3807994722228614
16	64	n/a	n/a	n/a	j	2	1.040834085586084e-17	0	j	1	0.3926470952992531
16	65	n/a	n/a	n/a	f	2	0.01000000000000001	1	f	1	0.3722903722518822
16	66	n/a	n/a	n/a	j	2	1.040834085586084e-17	0	j	1	0.425866968264927
16	67	n/a	n/a	n/a	j	2	0.01000000000000001	2	j	1	0.3973569502713872
16	68	n/a	n/a	n/a	j	2	0.02000000000000001	1	j	1	0.3845878834135874
16	69	n/a	n/a	n/a	f	2	0.01000000000000001	1	f	1	0.3575923175767457
16	70	n/a	n/a	n/a	j	2	1.040834085586084e-17	0	j	1	0.4176843080003891
16	71	n/a	n/a	n/a	j	2	0.01000000000000001	2	j	1	0.3403403354886905
17	0	j	1	0.7610555435021524	j	6	0.12	0	j	1	0.5125345719598045
17	1	n/a	n/a	n/a	f	6	0.13	1	f	1	0.5394936449747547
17	2	n/a	n/a	n/a	j	6	0.12	1	j	1	0.5354731622373947
17	3	n/a	n/a	n/a	j	6	0.11	1	j	1	0.5244286663673847
17	4	n/a	n/a	n/a	j	6	0.1	1	j	1	0.5053694342386734
17	5	n/a	n/a	n/a	f	6	0.09000000000000002	1	f	1	0.5103575469865973
17	6	n/a	n/a	n/a	j	6	0.08000000000000003	1	j	1	0.5060186073487785
17	7	n/a	n/a	n/a	j	6	0.07000000000000003	0	j	1	0.4783291076737441
17	8	n/a	n/a	n/a	j	6	0.08000000000000003	0	j	1	0.5132738367274214
17	9	n/a	n/a	n/a	f	6	0.09000000000000002	1	f	1	0.517263243544221
17	10	n/a	n/a	n/a	j	6	0.08000000000000003	1	j	1	0.4972084415885547
17	11	n/a	n/a	n/a	j	6	0.07000000000000003	0	j	1	0.4682208807944335
17	12	n/a	n/a	n/a	j	6	0.08000000000000003	0	j	1	0.5603022518062062
17	13	n/a	n/a	n/a	f	6	0.09000000000000002	1	f	1	0.4991499738134735
17	14	n/a	n/a	n/a	j	6	0.08000000000000003	0	j	1	0.4861320144973433
17	15	n/a	n/a	n/a	j	6	0.09000000000000002	0	j	1	0.5227502816078413
17	16	n/a	n/a	n/a	j	6	0.1	1	j	1	0.5755488392287589
17	17	n/a	n/a	n/a	f	6	0.09000000000000002	1	f	1	0.5409479409927371
17	18	n/a	n/a	n/a	j	6	0.08000000000000003	1	j	1	0.5540166481405322
17	19	n/a	n/a	n/a	j	6	0.07000000000000003	1	j	1	0.5979272076519919
17	20	n/a	n/a	n/a	j	6	0.06000000000000003	1	j	1	0.5770516022766969
17	21	n/a	n/a	n/a	f	6	0.05000000000000003	1	f	1	0.5808440048704142
17	22	n/a	n/a	n/a	j	6	0.04000000000000003	1	j	1	0.5597360428491811
17	23	n/a	n/a	n/a	j	6	0.03000000000000003	1	j	1	0.5308950235476004
17	24	n/a	n/a	n/a	j	6	0.02000000000000002	0	j	1	0.5664644070957365
17	25	n/a	n/a	n/a	f	6	0.03000000000000003	1	f	1	0.5467568571584707
17	26	n/a	n/a	n/a	j	6	0.02000000000000002	0	j	1	0.5587284988132524
17	27	n/a	n/a	n/a	j	6	0.03000000000000003	1	j	1	0.5947127031231503
17	28	n/a	n/a	n/a	j	6	0.02000000000000002	1	j	1	0.5815975246459857
17	29	n/a	n/a	n/a	f	6	0.01000000000000002	1	f	1	0.5696506867061544
17	30	n/a	n/a	n/a	j	6	2.42861286636753e-17	0	j	1	0.5886166910768225
17	31	n/a	n/a	n/a	j	6	0.01000000000000002	1	j	1	0.5603837904582178
17	32	n/a	n/a	n/a	j	6	2.42861286636753e-17	0	j	1	0.630533259929507
17	33	n/a	n/a	n/a	f	6	0.01000000000000002	2	f	1	0.5702177509638204
17	34	n/a	n/a	n/a	j	6	0.02000000000000002	1	j	1	0.5674249096018684
17	35	n/a	n/a	n/a	j	6	0.01000000000000002	0	j	1	0.5554338811343769
17	36	n/a	n/a	n/a	j	6	0.02000000000000002	0	j	1	0.5913690482129823
17	37	n/a	n/a	n/a	f	6	0.03000000000000003	1	f	1	0.5803969677881469
17	38	n/a	n/a	n/a	j	6	0.02000000000000002	1	j	1	0.584465062255731
17	39	n/a	n/a	n/a	j	6	0.01000000000000002	1	j	1	0.5882973788739037
17	40	n/a	n/a	n/a	j	6	2.42861286636753e-17	2	j	1	0.5763265925197629
17	41	n/a	n/a	n/a	f	6	0.01000000000000002	1	f	1	0.5470613441502792
17	42	n/a	n/a	n/a	j	6	2.42861286636753e-17	0	j	1	0.5738427997521285
17	43	n/a	n/a	n/a	j	6	0.01000000000000002	1	j	1	0.5292408723043991
17	44	n/a	n/a	n/a	j	6	2.42861286636753e-17	0	j	1	0.5740959687118448
17	45	n/a	n/a	n/a	f	6	0.01000000000000002	0	f	1	0.5938394412723937
17	46	n/a	n/a	n/a	j	6	0.02000000000000002	1	j	1	0.5668698195513571
17	47	n/a	n/a	n/a	j	6	0.01000000000000002	0	j	1	0.5240554702322697
17	48	n/a	n/a	n/a	j	6	0.02000000000000002	0	j	1	0.6092037750686359
17	49	n/a	n/a	n/a	f	6	0.03000000000000003	1	f	1	0.5558164855756331
17	50	n/a	n/a	n/a	j	6	0.02000000000000002	0	j	1	0.5609109406914286
17	51	n/a	n/a	n/a	j	6	0.03000000000000003	1	j	1	0.5958265895260411
17	52	n/a	n/a	n/a	j	6	0.02000000000000002	1	j	1	0.5759448433782381
17	53	n/a	n/a	n/a	f	6	0.01000000000000002	0	f	1	0.5484312505150228
17	54	n/a	n/a	n/a	j	6	0.02000000000000002	0	j	1	0.5144022632393899
17	55	n/a	n/a	n/a	j	6	0.03000000000000003	0	j	1	0.5824918839098245
17	56	n/a	n/a	n/a	j	6	0.04000000000000003	1	j	1	0.6257230496939883
17	57	n/a	n/a	n/a	f	6	0.03000000000000003	2	f	1	0.5723237859938308
17	58	n/a	n/a	n/a	j	6	0.04000000000000003	1	j	1	0.5596855801177298
17	59	n/a	n/a	n/a	j	6	0.03000000000000003	1	j	1	0.5646594378567897
17	60	n/a	n/a	n/a	j	6	0.02000000000000002	0	j	1	0.6155104761483017
17	61	n/a	n/a	n/a	f	6	0.03000000000000003	1	f	1	0.5165433655902234
17	62	n/a	n/a	n/a	j	6	0.02000000000000002	0	j	1	0.5526997704091627
17	63	n/a	n/a	n/a	j	6	0.03000000000000003	0	j	1	0.6524925310877734
17	64	n/a	n/a	n/a	j	6	0.04000000000000003	2	j	1	0.6874651999596608
17	65	n/a	n/a	n/a	f	6	0.05000000000000003	2	f	1	0.7084192078837077
17	66	n/a	n/a	n/a	j	6	0.06000000000000003	2	j	1	0.8393226703965411
17	67	n/a	n/a	n/a	j	6	0.07000000000000003	2	j	1	0.8063508345876471
17	68	n/a	n/a	n/a	j	6	0.08000000000000003	2	j	1	0.6442651100960575
17	69	n/a	n/a	n/a	f	6	0.09000000000000002	1	f	1	0.6400718566492287
17	70	n/a	n/a	n/a	j	6	0.08000000000000003	1	j	1	0.5468164430958495
17	71	n/a	n/a	n/a	j	6	0.07000000000000003	1	j	1	0.6151988616520612
18	0	j	1	0.6163289987653116	j	4	0.04000000000000001	2	j	1	0.3933903514680424
18	1	n/a	n/a	n/a	j	4	0.05000000000000002	1	j	1	0.4046934332027377
18	2	n/a	n/a	n/a	f	4	0.04000000000000001	1	f	1	0.3758529841015843
18	3	n/a	n/a	n/a	j	4	0.03000000000000001	1	j	1	0.3875534954850082
18	4	n/a	n/a	n/a	j	4	0.02000000000000001	1	j	1	0.4156233187995895
18	5	n/a	n/a	n/a	j	4	0.01000000000000001	2	j	1	0.3806751685433483
18	6	n/a	n/a	n/a	j	4	0.02000000000000001	1	j	1	0.3772468388806374
18	7	n/a	n/a	n/a	j	4	0.01000000000000001	0	j	1	0.3895848342663157
18	8	n/a	n/a	n/a	f	4	0.02000000000000001	1	f	1	0.3694938245880621
18	9	n/a	n/a	n/a	j	4	0.01000000000000001	0	j	1	0.4134996075599702
18	10	n/a	n/a	n/a	j	4	0.02000000000000001	2	j	1	0.3775079906454266
18	11	n/a	n/a	n/a	j	4	0.03000000000000001	1	j	1	0.3734262113694058
18	12	n/a	n/a	n/a	j	4	0.02000000000000001	1	j	1	0.3866041118862995
18	13	n/a	n/a	n/a	j	4	0.01000000000000001	1	j	1	0.405433268168963
18	14	n/a	n/a	n/a	f	4	1.040834085586084e-17	2	f	1	0.3853995636254695
18	15	n/a	n/a	n/a	j	4	0.01000000000000001	1	j	1	0.3961957372393954
18	16	n/a	n/a	n/a	j	4	1.040834085586084e-17	2	j	1	0.3913707017936758
18	17	n/a	n/a	n/a	j	4	0.01000000000000001	1	j	1	0.3553577023658363
18	18	n/a	n/a	n/a	j	4	1.040834085586084e-17	0	j	1	0.3583255952398758
18	19	n/a	n/a	n/a	j	4	0.01000000000000001	0	j	1	0.3859843040945634
18	20	n/a	n/a	n/a	f	4	0.02000000000000001	1	f	1	0.3252739313802522
18	21	n/a	n/a	n/a	j	4	0.01000000000000001	0	j	1	0.3922727587632835
18	22	n/a	n/a	n/a	j	4	0.02000000000000001	1	j	1	0.3792912922708638
18	23	n/a	n/a	n/a	j	4	0.01000000000000001	1	j	1	0.3439682352782256
18	24	n/a	n/a	n/a	j	4	1.040834085586084e-17	0	j	1	0.3961501212097573
18	25	n/a	n/a	n/a	j	4	0.01000000000000001	2	j	1	0.3602719741684268
18	26	n/a	n/a	n/a	f	4	0.02000000000000001	0	f	1	0.356131179154545
18	27	n/a	n/a	n/a	j	4	0.03000000000000001	1	j	1	0.3682544941057131
18	28	n/a	n/a	n/a	j	4	0.02000000000000001	1	j	1	0.3950698766293499
18	29	n/a	n/a	n/a	j	4	0.01000000000000001	1	j	1	0.3340655656293166
18	30	n/a	n/a	n/a	j	4	1.040834085586084e-17	0	j	1	0.3611968391514893
18	31	n/a	n/a	n/a	j	4	0.01000000000000001	0	j	1	0.3729572215725057
18	32	n/a	n/a	n/a	f	4	0.02000000000000001	1	f	1	0.3437763628571702
18	33	n/a	n/a	n/a	j	4	0.01000000000000001	0	j	1	0.3869553553067817
18	34	n/a	n/a	n/a	j	4	0.02000000000000001	1	j	1	0.3826272494761724
18	35	n/a	n/a	n/a	j	4	0.01000000000000001	1	j	1	0.3469284304464963
18	36	n/a	n/a	n/a	j	4	1.040834085586084e-17	0	j	1	0.3749041707023935
18	37	n/a	n/a	n/a	j	4	0.01000000000000001	0	j	1	0.3548941294739052
18	38	n/a	n/a	n/a	f	4	0.02000000000000001	0	f	1	0.3440041579015087
18	39	n/a	n/a	n/a	j	4	0.03000000000000001	0	j	1	0.3958926757477457
18	40	n/a	n/a	n/a	j	4	0.04000000000000001	1	j	1	0.3588918041969009
18	41	n/a	n/a	n/a	j	4	0.03000000000000001	1	j	1	0.3624755134578663
18	42	n/a	n/a	n/a	j	4	0.02000000000000001	0	j	1	0.3814209906149699
18	43	n/a	n/a	n/a	j	4	0.03000000000000001	1	j	1	0.361776732916951
18	44	n/a	n/a	n/a	f	4	0.02000000000000001	0	f	1	0.389710278345774
18	45	n/a	n/a	n/a	j	4	0.03000000000000001	1	j	1	0.3937079530687697
18	46	n/a	n/a	n/a	j	4	0.02000000000000001	1	j	1	0.3737210049548594
18	47	n/a	n/a	n/a	j	4	0.01000000000000001	0	j	1	0.3866816591344104
18	48	n/a	n/a	n/a	j	4	0.02000000000000001	1	j	1	0.4786318840642707
18	49	n/a	n/a	n/a	j	4	0.01000000000000001	2	j	1	0.4336621773845764
18	50	n/a	n/a	n/a	f	4	0.02000000000000001	2	f	1	0.3836302319086826
18	51	n/a	n/a	n/a	j	4	0.03000000000000001	1	j	1	0.3785503169028743
18	52	n/a	n/a	n/a	j	4	0.02000000000000001	1	j	1	0.3812915551334299
18	53	n/a	n/a	n/a	j	4	0.01000000000000001	1	j	1	0.3785021349722228
18	54	n/a	n/a	n/a	j	4	1.040834085586084e-17	0	j	1	0.4233669247869329
18	55	n/a	n/a	n/a	j	4	0.01000000000000001	2	j	1	0.3865043268233421
18	56	n/a	n/a	n/a	f	4	0.02000000000000001	1	f	1	0.3913421917759479
18	57	n/a	n/a	n/a	j	4	0.01000000000000001	1	j	1	0.4034518219186793
18	58	n/a	n/a	n/a	j	4	1.040834085586084e-17	2	j	1	0.3936301207204451
18	59	n/a	n/a	n/a	j	4	0.01000000000000001	1	j	1	0.3564114326318304
18	60	n/a	n/a	n/a	j	4	1.040834085586084e-17	0	j	1	0.4005198516679229
18	61	n/a	n/a	n/a	j	4	0.01000000000000001	2	j	1	0.3652700654220098
18	62	n/a	n/a	n/a	f	4	0.02000000000000001	1	f	1	0.4012052325006152
18	63	n/a	n/a	n/a	j	4	0.01000000000000001	2	j	1	0.3902445560834167
18	64	n/a	n/a	n/a	j	4	0.02000000000000001	1	j	1	0.4342349436456061
18	65	n/a	n/a	n/a	j	4	0.01000000000000001	2	j	1	0.3752842092417268
18	66	n/a	n/a	n/a	j	4	0.02000000000000001	1	j	1	0.4109910110764758
18	67	n/a	n/a	n/a	j	4	0.01000000000000001	2	j	1	0.3669122424580564
18	68	n/a	n/a	n/a	f	4	0.02000000000000001	1	f	1	0.3311546927916424
18	69	n/a	n/a	n/a	j	4	0.01000000000000001	0	j	1	0.3991912848296124
18	70	n/a	n/a	n/a	j	4	0.02000000000000001	1	j	1	0.3731339836849656
18	71	n/a	n/a	n/a	j	4	0.01000000000000001	0	j	1	0.361764188509369
19	0	f	1	0.4123335478234367	f	1	0.06000000000000003	1	f	1	0.4058147322093646
19	1	n/a	n/a	n/a	j	1	0.05000000000000003	1	j	1	0.37073999747372
19	2	n/a	n/a	n/a	f	1	0.04000000000000003	1	f	1	0.3915831014273863
19	3	n/a	n/a	n/a	f	1	0.03000000000000003	1	f	1	1.196705724441017
19	4	n/a	n/a	n/a	f	1	0.02000000000000002	2	f	1	0.3996750998348944
19	5	n/a	n/a	n/a	j	1	0.03000000000000003	1	j	1	0.3786355618567541
19	6	n/a	n/a	n/a	f	1	0.02000000000000002	1	f	1	0.4145918263493513
19	7	n/a	n/a	n/a	f	1	0.01000000000000002	2	f	1	0.3626186337487525
19	8	n/a	n/a	n/a	f	1	0.02000000000000002	0	f	1	0.3894907512076315
19	9	n/a	n/a	n/a	j	1	0.03000000000000003	1	j	1	0.3691103648452554
19	10	n/a	n/a	n/a	f	1	0.02000000000000002	1	f	1	0.3825246134110785
19	11	n/a	n/a	n/a	f	1	0.01000000000000002	1	f	1	0.362460688248575
19	12	n/a	n/a	n/a	f	1	2.42861286636753e-17	0	f	1	0.375141659151268
19	13	n/a	n/a	n/a	j	1	0.01000000000000002	0	j	1	0.3965053560350498
19	14	n/a	n/a	n/a	f	1	0.02000000000000002	1	f	1	0.3925339105280727
19	15	n/a	n/a	n/a	f	1	0.01000000000000002	1	f	1	0.3793371933988965
19	16	n/a	n/a	n/a	f	1	2.42861286636753e-17	0	f	1	0.3593502452858957
19	17	n/a	n/a	n/a	j	1	0.01000000000000002	0	j	1	0.3632179143269241
19	18	n/a	n/a	n/a	f	1	0.02000000000000002	0	f	1	0.3933059618157131
19	19	n/a	n/a	n/a	f	1	0.03000000000000003	1	f	1	0.4294723451403115
19	20	n/a	n/a	n/a	f	1	0.02000000000000002	2	f	1	0.3772853274040244
19	21	n/a	n/a	n/a	j	1	0.03000000000000003	1	j	1	0.3658964305168411
19	22	n/a	n/a	n/a	f	1	0.02000000000000002	1	f	1	0.3862662681722213
19	23	n/a	n/a	n/a	f	1	0.01000000000000002	1	f	1	0.4132376004945399
19	24	n/a	n/a	n/a	f	1	2.42861286636753e-17	2	f	1	0.3611777374389931
19	25	n/a	n/a	n/a	j	1	0.01000000000000002	0	j	1	0.3671771005256232
19	26	n/a	n/a	n/a	f	1	0.02000000000000002	1	f	1	0.4031983678578399
19	27	n/a	n/a	n/a	f	1	0.01000000000000002	2	f	1	0.3762832002721552
19	28	n/a	n/a	n/a	f	1	0.02000000000000002	1	f	1	0.3631013083540893
19	29	n/a	n/a	n/a	j	1	0.01000000000000002	0	j	1	0.3577784879944375
19	30	n/a	n/a	n/a	f	1	0.02000000000000002	0	f	1	0.3936922725597469
19	31	n/a	n/a	n/a	f	1	0.03000000000000003	1	f	1	0.3497848491488185
19	32	n/a	n/a	n/a	f	1	0.02000000000000002	0	f	1	0.3932081724542513
19	33	n/a	n/a	n/a	j	1	0.03000000000000003	1	j	1	0.4059840817162694
19	34	n/a	n/a	n/a	f	1	0.02000000000000002	1	f	1	0.3800442418460079
19	35	n/a	n/a	n/a	f	1	0.01000000000000002	0	f	1	0.3824405088580534
19	36	n/a	n/a	n/a	f	1	0.02000000000000002	1	f	1	0.3629222654408295
19	37	n/a	n/a	n/a	j	1	0.01000000000000002	0	j	1	0.409912762195745
19	38	n/a	n/a	n/a	f	1	0.02000000000000002	2	f	1	0.4148720798257273
19	39	n/a	n/a	n/a	f	1	0.03000000000000003	2	f	1	0.4576847185444421
19	40	n/a	n/a	n/a	f	1	0.04000000000000003	2	f	1	0.4697598515649588
19	41	n/a	n/a	n/a	j	1	0.05000000000000003	2	j	1	0.4348695766466335
19	42	n/a	n/a	n/a	f	1	0.06000000000000003	1	f	1	0.4547784073101866
19	43	n/a	n/a	n/a	f	1	0.05000000000000003	2	f	1	0.4337154911181642
19	44	n/a	n/a	n/a	f	1	0.06000000000000003	1	f	1	0.3894819131019176
19	45	n/a	n/a	n/a	j	1	0.05000000000000003	1	j	1	0.3543897872550588
19	46	n/a	n/a	n/a	f	1	0.04000000000000003	1	f	1	0.7977202819411104
19	47	n/a	n/a	n/a	f	1	0.03000000000000003	2	f	1	0.4167776894282724
19	48	n/a	n/a	n/a	f	1	0.04000000000000003	1	f	1	0.4061882134456027
19	49	n/a	n/a	n/a	j	1	0.03000000000000003	1	j	1	0.3786118985417488
19	50	n/a	n/a	n/a	f	1	0.02000000000000002	1	f	1	0.4065443035706267
19	51	n/a	n/a	n/a	f	1	0.01000000000000002	2	f	1	0.3784468255380489
19	52	n/a	n/a	n/a	f	1	0.02000000000000002	1	f	1	0.4085904675612255
19	53	n/a	n/a	n/a	j	1	0.01000000000000002	2	j	1	0.3894756408981266
19	54	n/a	n/a	n/a	f	1	0.02000000000000002	1	f	1	0.4174758997696699
19	55	n/a	n/a	n/a	f	1	0.01000000000000002	1	j	0	0.4134143626060904
19	56	n/a	n/a	n/a	f	1	0.02000000000000002	1	j	0	0.4885533703263718
19	57	n/a	n/a	n/a	j	1	0.03000000000000003	1	f	0	0.4353967268789347
19	58	n/a	n/a	n/a	f	1	0.04000000000000003	2	f	1	0.4463608244986972
19	59	n/a	n/a	n/a	f	1	0.05000000000000003	2	f	1	0.4113502373029405
19	60	n/a	n/a	n/a	f	1	0.06000000000000003	1	f	1	0.4313397513187738
19	61	n/a	n/a	n/a	j	1	0.05000000000000003	1	j	1	0.3723850255119032
19	62	n/a	n/a	n/a	f	1	0.04000000000000003	1	f	1	0.4392968973406823
19	63	n/a	n/a	n/a	f	1	0.03000000000000003	2	f	1	0.3782518170146432
19	64	n/a	n/a	n/a	f	1	0.04000000000000003	1	f	1	0.4412198980535322
19	65	n/a	n/a	n/a	j	1	0.03000000000000003	2	j	1	0.3994016887618272
19	66	n/a	n/a	n/a	f	1	0.04000000000000003	1	f	1	0.4501304190771407
19	67	n/a	n/a	n/a	f	1	0.03000000000000003	2	f	1	0.4130748082916398
19	68	n/a	n/a	n/a	f	1	0.04000000000000003	1	f	1	0.3932794474985712
19	69	n/a	n/a	n/a	j	1	0.03000000000000003	1	j	1	0.3978327824725056
19	70	n/a	n/a	n/a	f	1	0.02000000000000002	1	f	1	0.4420857472996431
19	71	n/a	n/a	n/a	f	1	0.01000000000000002	2	f	1	0.3736577127156124
20	0	f	1	0.6005923241336859	f	3	0.02000000000000001	1	f	1	0.3940908426111491
20	1	n/a	n/a	n/a	f	3	0.01000000000000001	1	f	1	0.3820513471127924
20	2	n/a	n/a	n/a	j	3	1.040834085586084e-17	0	j	1	0.3480223598371595
20	3	n/a	n/a	n/a	f	3	0.01000000000000001	0	f	1	0.3769700066059158
20	4	n/a	n/a	n/a	f	3	0.02000000000000001	1	f	1	0.3796721861117476
20	5	n/a	n/a	n/a	f	3	0.01000000000000001	1	f	1	0.3769511899936333
20	6	n/a	n/a	n/a	f	3	1.040834085586084e-17	0	f	1	0.3716585902539009
20	7	n/a	n/a	n/a	f	3	0.01000000000000001	0	f	1	0.360062425535034
20	8	n/a	n/a	n/a	j	3	0.02000000000000001	0	j	1	0.3307977473668871
20	9	n/a	n/a	n/a	f	3	0.03000000000000001	0	f	1	0.3748902007928336
20	10	n/a	n/a	n/a	f	3	0.04000000000000001	1	f	1	0.4178240070887114
20	11	n/a	n/a	n/a	f	3	0.03000000000000001	2	f	1	0.3644307304921313
20	12	n/a	n/a	n/a	f	3	0.04000000000000001	1	f	1	0.3708038599152133
20	13	n/a	n/a	n/a	f	3	0.03000000000000001	1	f	1	0.3436235491608386
20	14	n/a	n/a	n/a	j	3	0.02000000000000001	0	j	1	0.3387546082876725
20	15	n/a	n/a	n/a	f	3	0.03000000000000001	0	f	1	0.34974465002324
20	16	n/a	n/a	n/a	f	3	0.04000000000000001	1	f	1	0.3777560278022065
20	17	n/a	n/a	n/a	f	3	0.03000000000000001	1	f	1	0.7656724558155474
20	18	n/a	n/a	n/a	f	3	0.02000000000000001	2	f	1	0.4018467079049515
20	19	n/a	n/a	n/a	f	3	0.03000000000000001	1	f	1	0.3576878261364982
20	20	n/a	n/a	n/a	j	3	0.02000000000000001	0	j	1	0.3387759908009684
20	21	n/a	n/a	n/a	f	3	0.03000000000000001	0	f	1	0.3826081477636762
20	22	n/a	n/a	n/a	f	3	0.04000000000000001	1	f	1	0.362557052109878
20	23	n/a	n/a	n/a	f	3	0.03000000000000001	1	f	1	0.3575022259201432
20	24	n/a	n/a	n/a	f	3	0.02000000000000001	0	f	1	0.3615073132468751
20	25	n/a	n/a	n/a	f	3	0.03000000000000001	1	f	1	0.399541387851059
20	26	n/a	n/a	n/a	j	3	0.02000000000000001	1	j	1	0.3555969014169023
20	27	n/a	n/a	n/a	f	3	0.01000000000000001	0	f	1	0.4075470009029232
20	28	n/a	n/a	n/a	f	3	0.02000000000000001	1	f	1	0.365439129828701
20	29	n/a	n/a	n/a	f	3	0.01000000000000001	0	f	1	0.3612940583125237
20	30	n/a	n/a	n/a	f	3	0.02000000000000001	0	f	1	0.3584185378977054
20	31	n/a	n/a	n/a	f	3	0.03000000000000001	1	f	1	0.3879392360286147
20	32	n/a	n/a	n/a	j	3	0.02000000000000001	1	j	1	0.3450097062359418
20	33	n/a	n/a	n/a	f	3	0.01000000000000001	0	f	1	0.3973181766477865
20	34	n/a	n/a	n/a	f	3	0.02000000000000001	1	f	1	0.3933196466241498
20	35	n/a	n/a	n/a	f	3	0.01000000000000001	1	f	1	0.3571991644284935
20	36	n/a	n/a	n/a	f	3	1.040834085586084e-17	0	f	1	0.3612259193696445
20	37	n/a	n/a	n/a	f	3	0.01000000000000001	0	f	1	0.3672164443496513
20	38	n/a	n/a	n/a	j	3	0.02000000000000001	1	j	1	0.3312199807332945
20	39	n/a	n/a	n/a	f	3	0.01000000000000001	0	f	1	0.3661607183839806
20	40	n/a	n/a	n/a	f	3	0.02000000000000001	1	f	1	0.3950094353904205
20	41	n/a	n/a	n/a	f	3	0.01000000000000001	1	f	1	0.3791148152595269
20	42	n/a	n/a	n/a	f	3	1.040834085586084e-17	0	f	1	0.3741512211263398
20	43	n/a	n/a	n/a	f	3	0.01000000000000001	1	f	1	0.3852190952120509
20	44	n/a	n/a	n/a	j	3	1.040834085586084e-17	0	j	1	0.3660540909168049
20	45	n/a	n/a	n/a	f	3	0.01000000000000001	0	f	1	0.3537679837627365
20	46	n/a	n/a	n/a	f	3	0.02000000000000001	0	f	1	0.3900136249376374
20	47	n/a	n/a	n/a	f	3	0.03000000000000001	1	f	1	0.3700523358402279
20	48	n/a	n/a	n/a	f	3	0.02000000000000001	1	f	1	0.3499573347580736
20	49	n/a	n/a	n/a	f	3	0.01000000000000001	0	f	1	0.3629502052572207
20	50	n/a	n/a	n/a	j	3	0.02000000000000001	0	j	1	0.3600535874302295
20	51	n/a	n/a	n/a	f	3	0.03000000000000001	1	f	1	0.4530387260119824
20	52	n/a	n/a	n/a	f	3	0.02000000000000001	2	f	1	0.4099167535987362
20	53	n/a	n/a	n/a	f	3	0.03000000000000001	1	f	1	0.3996195053005067
20	54	n/a	n/a	n/a	f	3	0.02000000000000001	1	f	1	0.3965315852510685
20	55	n/a	n/a	n/a	f	3	0.01000000000000001	2	f	1	0.3597237265212243
20	56	n/a	n/a	n/a	j	3	0.02000000000000001	0	j	1	0.3484574227113626
20	57	n/a	n/a	n/a	f	3	0.03000000000000001	0	f	1	0.4239644947638226
20	58	n/a	n/a	n/a	f	3	0.04000000000000001	1	f	1	0.4027718579891371
20	59	n/a	n/a	n/a	f	3	0.03000000000000001	1	f	1	0.3758424353945884
20	60	n/a	n/a	n/a	f	3	0.02000000000000001	1	f	1	0.7884157524695183
20	61	n/a	n/a	n/a	f	3	0.01000000000000001	2	f	1	0.4156327271057307
20	62	n/a	n/a	n/a	j	3	0.02000000000000001	2	j	1	0.3482934901076078
20	63	n/a	n/a	n/a	f	3	0.03000000000000001	0	f	1	0.40048164824384
20	64	n/a	n/a	n/a	f	3	0.04000000000000001	1	f	1	0.3652774780266554
20	65	n/a	n/a	n/a	f	3	0.03000000000000001	1	f	1	0.3695896182480283
20	66	n/a	n/a	n/a	f	3	0.02000000000000001	1	f	1	0.3565802119373984
20	67	n/a	n/a	n/a	f	3	0.01000000000000001	0	f	1	0.4075897659304246
20	68	n/a	n/a	n/a	j	3	0.02000000000000001	1	j	1	0.3655161068772941
20	69	n/a	n/a	n/a	f	3	0.01000000000000001	0	f	1	0.4104746946504747
20	70	n/a	n/a	n/a	f	3	0.02000000000000001	2	f	1	0.3815204905777136
20	71	n/a	n/a	n/a	f	3	0.03000000000000001	1	f	1	0.368558695997308
21	0	f	1	0.9712296855432214	f	11	0.1	0	f	1	0.8927800945339186
21	1	n/a	n/a	n/a	f	11	0.11	1	f	1	0.9125879997345692
21	2	n/a	n/a	n/a	j	11	0.1	1	j	1	0.8755318187486409
21	3	n/a	n/a	n/a	f	11	0.09000000000000001	0	f	1	0.8745145813063573
21	4	n/a	n/a	n/a	f	11	0.1	0	f	1	0.9264247667670134
21	5	n/a	n/a	n/a	f	11	0.11	1	f	1	0.9584802905974357
21	6	n/a	n/a	n/a	f	11	0.1	1	f	1	0.8114418685008786
21	7	n/a	n/a	n/a	f	11	0.09000000000000001	0	f	1	0.8484783775747928
21	8	n/a	n/a	n/a	j	11	0.1	0	j	1	0.7733536248633754
21	9	n/a	n/a	n/a	f	11	0.11	0	f	1	0.889311280644506
21	10	n/a	n/a	n/a	f	11	0.12	1	f	1	0.8120867651086883
21	11	n/a	n/a	n/a	f	11	0.11	0	f	1	0.8183583988657119
21	12	n/a	n/a	n/a	f	11	0.12	0	f	1	0.8780047777090658
21	13	n/a	n/a	n/a	f	11	0.13	1	f	1	0.7869657329538313
21	14	n/a	n/a	n/a	j	11	0.12	0	j	1	0.814994216742889
21	15	n/a	n/a	n/a	f	11	0.13	0	f	1	0.8198916676337831
