blockLoop_thisRepN	trialLoop_thisRepN	trigger	firstKey	readyKey_corr	readyKey_rt	targetKey	blockType	margin	outcome	trialResp_keys	trialResp_corr	trialResp_rt
0	0	48	j	1	102.4400552287698	j	8	0.1	0	f	0	0.6644872953183949
0	1	128	n/a	n/a	n/a	j	8	0.11	1	j	1	1.052034062333405
0	2	88	n/a	n/a	n/a	f	8	0.1	2	f	1	1.041076101362705
0	3	108	n/a	n/a	n/a	j	8	0.11	2	f	0	0.724841607734561
0	4	128	n/a	n/a	n/a	j	8	0.12	2	j	1	0.8730406402610242
0	5	108	n/a	n/a	n/a	j	8	0.13	2	f	0	0.8447918756864965
0	6	128	n/a	n/a	n/a	j	8	0.14	2	j	1	1.015887845307589
0	7	108	n/a	n/a	n/a	j	8	0.15	2	j	1	0.8986884718760848
0	8	108	n/a	n/a	n/a	f	8	0.16	2	f	1	1.117468219716102
0	9	108	n/a	n/a	n/a	j	8	0.17	2	j	1	0.8887357604689896
0	10	108	n/a	n/a	n/a	j	8	0.18	2	f	0	0.7639856114983559
0	11	128	n/a	n/a	n/a	j	8	0.1900000000000001	1	j	1	0.8966488926671445
0	12	88	n/a	n/a	n/a	j	8	0.18	2	j	1	1.01240681996569
0	13	108	n/a	n/a	n/a	j	8	0.1900000000000001	2	j	1	0.975424415897578
0	14	108	n/a	n/a	n/a	f	8	0.2000000000000001	2	j	0	0.7950345920398831
0	15	128	n/a	n/a	n/a	j	8	0.2100000000000001	2	f	0	0.3982130736112595
0	16	128	n/a	n/a	n/a	j	8	0.2000000000000001	2	f	0	0.1629547607153654
0	17	128	n/a	n/a	n/a	j	8	0.1900000000000001	0	j	1	0.6783241583034396
0	18	68	n/a	n/a	n/a	j	8	0.2000000000000001	0	f	0	1.098260427825153
0	19	128	n/a	n/a	n/a	j	8	0.1900000000000001	2	j	1	0.3811187008395791
0	20	108	n/a	n/a	n/a	f	8	0.2000000000000001	2	j	0	6.097222962416708
0	21	128	n/a	n/a	n/a	j	8	0.2100000000000001	2	j	1	2.4593545361422
0	22	108	n/a	n/a	n/a	j	8	0.2200000000000001	2	j	1	0.872911776881665
0	23	108	n/a	n/a	n/a	j	8	0.2300000000000001	2	f	0	0.9954122304916382
0	24	128	n/a	n/a	n/a	j	8	0.2400000000000001	2	j	1	0.9352512136101723
0	25	108	n/a	n/a	n/a	j	8	0.2500000000000001	2	j	1	1.250461927615106
0	26	108	n/a	n/a	n/a	f	8	0.2600000000000001	2	j	0	1.206270863767713
0	27	128	n/a	n/a	n/a	j	8	0.2700000000000001	2	f	0	0.1064107604324818
0	28	128	n/a	n/a	n/a	j	8	0.2800000000000001	2	f	0	0.2853716816753149
0	29	128	n/a	n/a	n/a	j	8	0.2900000000000001	0	j	1	1.489342958666384
0	30	68	n/a	n/a	n/a	j	8	0.3000000000000002	0	f	0	1.157161604147404
0	31	128	n/a	n/a	n/a	j	8	0.3100000000000002	2	j	1	0.402085536159575
0	32	108	n/a	n/a	n/a	f	8	0.3200000000000002	2	j	0	1.853120963089168
0	33	128	n/a	n/a	n/a	j	8	0.3100000000000002	2	j	1	1.401162679772824
0	34	108	n/a	n/a	n/a	j	8	0.3200000000000002	2	j	1	16.78151019476354
0	35	108	n/a	n/a	n/a	j	8	0.3300000000000002	2	j	1	1.065101164858788
0	36	108	n/a	n/a	n/a	j	8	0.3400000000000002	2	j	1	1.2679329123348
0	37	108	n/a	n/a	n/a	j	8	0.3500000000000002	2	f	0	1.119731883984059
0	38	128	n/a	n/a	n/a	f	8	0.3600000000000002	2	j	0	0.0988505776040256
0	39	128	n/a	n/a	n/a	j	8	0.3700000000000002	0	j	1	0.1119997878558934
0	40	68	n/a	n/a	n/a	j	8	0.3800000000000002	0	f	0	1.110812362283468
0	41	128	n/a	n/a	n/a	j	8	0.3900000000000002	0	f	0	1.633706305641681
0	42	128	n/a	n/a	n/a	j	8	0.4000000000000002	2	j	1	0.3367976332083344
0	43	108	n/a	n/a	n/a	j	8	0.4100000000000003	1	j	1	0.8202296905219555
0	44	88	n/a	n/a	n/a	f	8	0.4000000000000002	1	f	1	1.40072619728744
0	45	88	n/a	n/a	n/a	j	8	0.3900000000000002	2	j	1	0.925366641022265
0	46	108	n/a	n/a	n/a	j	8	0.4000000000000002	1	j	1	1.033106805291027
0	47	88	n/a	n/a	n/a	j	8	0.3900000000000002	2	j	1	0.9893408203497529
0	48	108	n/a	n/a	n/a	j	8	0.4000000000000002	2	j	1	1.001341948285699
0	49	108	n/a	n/a	n/a	j	8	0.4100000000000003	2	j	1	1.023292365949601
0	50	108	n/a	n/a	n/a	f	8	0.4200000000000003	2	f	1	1.099238308146596
0	51	108	n/a	n/a	n/a	j	8	0.4300000000000003	2	j	1	1.143154253717512
0	52	108	n/a	n/a	n/a	j	8	0.4400000000000003	2	j	1	1.0171665023081
0	53	108	n/a	n/a	n/a	j	8	0.4500000000000003	1	j	1	1.196989269461483
0	54	88	n/a	n/a	n/a	j	8	0.4400000000000003	2	j	1	0.9628887325525284
0	55	108	n/a	n/a	n/a	j	8	0.4500000000000003	1	j	1	1.150874661281705
0	56	88	n/a	n/a	n/a	f	8	0.4400000000000003	2	f	1	1.22586838202551
0	57	108	n/a	n/a	n/a	j	8	0.4500000000000003	2	j	1	1.189360663294792
0	58	108	n/a	n/a	n/a	j	8	0.4600000000000003	2	j	1	1.226453969720751
0	59	108	n/a	n/a	n/a	j	8	0.4700000000000003	2	j	1	1.288663973100483
0	60	108	n/a	n/a	n/a	j	8	0.4800000000000003	2	j	1	1.238533784169704
0	61	108	n/a	n/a	n/a	j	8	0.4900000000000003	2	j	1	1.162468101363629
0	62	108	n/a	n/a	n/a	f	8	0.5000000000000003	2	f	1	1.190318586304784
0	63	108	n/a	n/a	n/a	j	8	0.5100000000000003	2	j	1	1.211183927953243
0	64	108	n/a	n/a	n/a	j	8	0.5200000000000004	2	j	1	1.232387963682413
0	65	108	n/a	n/a	n/a	j	8	0.5300000000000004	2	j	1	1.332194183953106
0	66	108	n/a	n/a	n/a	j	8	0.5400000000000004	2	j	1	1.039106086362153
0	67	108	n/a	n/a	n/a	j	8	0.5500000000000004	1	j	1	1.153867031447589
0	68	88	n/a	n/a	n/a	f	8	0.5400000000000004	2	f	1	1.069036063738167
0	69	108	n/a	n/a	n/a	j	8	0.5500000000000004	1	j	1	0.8996726237237453
0	70	88	n/a	n/a	n/a	j	8	0.5400000000000004	1	j	1	0.8320839935913682
0	71	88	n/a	n/a	n/a	j	8	0.5300000000000004	1	j	1	1.019754035864025
1	0	89	f	1	5.051532577723265	f	9	0.1	1	f	1	1.038465760182589
1	1	89	n/a	n/a	n/a	j	9	0.09000000000000001	1	j	1	1.025647831615061
1	2	89	n/a	n/a	n/a	f	9	0.08000000000000002	1	f	1	1.086631921119988
1	3	89	n/a	n/a	n/a	f	9	0.07000000000000002	2	f	1	1.105616481974721
1	4	109	n/a	n/a	n/a	f	9	0.08000000000000002	2	f	1	1.077465220354497
1	5	109	n/a	n/a	n/a	j	9	0.09000000000000001	2	j	1	1.043463212903589
1	6	109	n/a	n/a	n/a	f	9	0.1	1	f	1	1.127420930657536
1	7	89	n/a	n/a	n/a	f	9	0.09000000000000001	2	f	1	1.084300403483212
1	8	109	n/a	n/a	n/a	f	9	0.1	2	f	1	1.096998306922615
1	9	109	n/a	n/a	n/a	j	9	0.11	1	j	1	1.118213461246341
1	10	89	n/a	n/a	n/a	f	9	0.1	2	f	1	1.017341551370919
1	11	109	n/a	n/a	n/a	f	9	0.11	1	f	1	1.140053546521813
1	12	89	n/a	n/a	n/a	f	9	0.1	2	f	1	1.062675280496478
1	13	109	n/a	n/a	n/a	j	9	0.11	1	j	1	1.026933615561575
1	14	89	n/a	n/a	n/a	f	9	0.1	1	f	1	1.038901672232896
1	15	89	n/a	n/a	n/a	f	9	0.09000000000000001	1	f	1	1.234827247448266
1	16	89	n/a	n/a	n/a	f	9	0.08000000000000002	2	f	1	1.038276170846075
1	17	109	n/a	n/a	n/a	j	9	0.09000000000000001	1	j	1	1.143738986458629
1	18	89	n/a	n/a	n/a	f	9	0.08000000000000002	2	f	1	1.028648469597101
1	19	109	n/a	n/a	n/a	f	9	0.09000000000000001	1	f	1	1.016751687042415
1	20	89	n/a	n/a	n/a	f	9	0.08000000000000002	1	f	1	1.044215581845492
1	21	89	n/a	n/a	n/a	j	9	0.07000000000000002	1	j	1	1.040636198129505
1	22	89	n/a	n/a	n/a	f	9	0.06000000000000002	1	f	1	1.084476593416184
1	23	89	n/a	n/a	n/a	f	9	0.05000000000000002	2	f	1	1.041346372570843
1	24	109	n/a	n/a	n/a	f	9	0.06000000000000002	1	f	1	1.074251614976674
1	25	89	n/a	n/a	n/a	j	9	0.05000000000000002	2	j	1	1.055292427539825
1	26	109	n/a	n/a	n/a	f	9	0.06000000000000002	2	f	1	1.083176554180682
1	27	109	n/a	n/a	n/a	f	9	0.07000000000000002	2	f	1	1.00793080823496
1	28	109	n/a	n/a	n/a	f	9	0.08000000000000002	1	f	1	1.050723189488053
1	29	89	n/a	n/a	n/a	j	9	0.07000000000000002	1	j	1	1.005997285246849
1	30	89	n/a	n/a	n/a	f	9	0.06000000000000002	1	f	1	1.027830528561026
1	31	89	n/a	n/a	n/a	f	9	0.05000000000000002	1	f	1	1.001845428254455
1	32	89	n/a	n/a	n/a	f	9	0.04000000000000001	1	f	1	1.03691854281351
1	33	89	n/a	n/a	n/a	j	9	0.03000000000000001	2	j	1	1.072969822213054
1	34	109	n/a	n/a	n/a	f	9	0.04000000000000001	2	f	1	1.084716929588467
1	35	109	n/a	n/a	n/a	f	9	0.05000000000000002	2	f	1	1.05675155017525
1	36	109	n/a	n/a	n/a	f	9	0.06000000000000002	2	f	1	1.019622891675681
1	37	109	n/a	n/a	n/a	j	9	0.07000000000000002	1	j	1	1.015475025866181
1	38	89	n/a	n/a	n/a	f	9	0.06000000000000002	1	f	1	1.050497108139098
1	39	89	n/a	n/a	n/a	f	9	0.05000000000000002	2	f	1	1.021478298120201
1	40	109	n/a	n/a	n/a	f	9	0.06000000000000002	1	f	1	1.032355006784201
1	41	89	n/a	n/a	n/a	j	9	0.05000000000000002	1	j	1	0.9722287710756063
1	42	89	n/a	n/a	n/a	f	9	0.04000000000000001	1	f	1	1.048386255279183
1	43	89	n/a	n/a	n/a	f	9	0.03000000000000001	2	f	1	0.9790753587149084
1	44	109	n/a	n/a	n/a	f	9	0.04000000000000001	1	f	1	1.02215768257156
1	45	89	n/a	n/a	n/a	j	9	0.03000000000000001	2	j	1	1.06809724168852
1	46	109	n/a	n/a	n/a	f	9	0.04000000000000001	2	f	1	1.042020625434816
1	47	109	n/a	n/a	n/a	f	9	0.05000000000000002	2	f	1	1.038814432919025
1	48	109	n/a	n/a	n/a	f	9	0.06000000000000002	1	f	1	0.90789565583691
1	49	89	n/a	n/a	n/a	j	9	0.05000000000000002	0	j	1	0.8418719191104174
1	50	69	n/a	n/a	n/a	f	9	0.06000000000000002	0	f	1	1.284653808921576
1	51	69	n/a	n/a	n/a	f	9	0.07000000000000002	2	f	1	1.161666125524789
1	52	109	n/a	n/a	n/a	f	9	0.08000000000000002	2	f	1	1.150638316292316
1	53	109	n/a	n/a	n/a	j	9	0.09000000000000001	2	j	1	0.9956049555912614
1	54	109	n/a	n/a	n/a	f	9	0.1	1	f	1	1.008695721626282
1	55	89	n/a	n/a	n/a	f	9	0.09000000000000001	1	f	1	1.053448995109648
1	56	89	n/a	n/a	n/a	f	9	0.08000000000000002	1	f	1	0.9924509357661009
1	57	89	n/a	n/a	n/a	j	9	0.07000000000000002	1	j	1	1.003337337169796
1	58	89	n/a	n/a	n/a	f	9	0.06000000000000002	1	f	1	0.9979239287786186
1	59	89	n/a	n/a	n/a	f	9	0.05000000000000002	1	f	1	1.033892815932631
1	60	89	n/a	n/a	n/a	f	9	0.04000000000000001	2	f	1	1.04515440389514
1	61	109	n/a	n/a	n/a	j	9	0.05000000000000002	2	j	1	1.097786027938128
1	62	109	n/a	n/a	n/a	f	9	0.06000000000000002	2	f	1	1.062054341193289
1	63	109	n/a	n/a	n/a	f	9	0.07000000000000002	2	f	1	1.034754661843181
1	64	109	n/a	n/a	n/a	f	9	0.08000000000000002	1	f	1	1.038558416534215
1	65	89	n/a	n/a	n/a	j	9	0.07000000000000002	1	j	1	0.9724445892497897
1	66	89	n/a	n/a	n/a	f	9	0.06000000000000002	1	f	1	1.012875803280622
1	67	89	n/a	n/a	n/a	f	9	0.05000000000000002	1	f	1	1.035764758009464
1	68	89	n/a	n/a	n/a	f	9	0.04000000000000001	2	f	1	1.014726648107171
1	69	109	n/a	n/a	n/a	j	9	0.05000000000000002	1	j	1	1.018639309797436
1	70	89	n/a	n/a	n/a	f	9	0.04000000000000001	1	f	1	1.022250053938478
1	71	89	n/a	n/a	n/a	f	9	0.03000000000000001	2	f	1	1.04455798259005
2	0	110	j	1	2.11438946519047	j	10	0.1	1	j	1	0.9756202767603099
2	1	90	n/a	n/a	n/a	f	10	0.09000000000000001	1	f	1	0.969714792445302
2	2	90	n/a	n/a	n/a	j	10	0.08000000000000002	1	j	1	1.022278278134763
2	3	90	n/a	n/a	n/a	j	10	0.07000000000000002	1	j	1	1.033621118869632
2	4	90	n/a	n/a	n/a	j	10	0.06000000000000002	1	j	1	0.990526536013931
2	5	90	n/a	n/a	n/a	f	10	0.05000000000000002	1	f	1	0.985538206063211
2	6	90	n/a	n/a	n/a	j	10	0.04000000000000001	1	j	1	0.9804788874462247
2	7	90	n/a	n/a	n/a	j	10	0.03000000000000001	1	j	1	1.016207438427955
2	8	90	n/a	n/a	n/a	j	10	0.02000000000000001	2	j	1	1.061356995254755
2	9	110	n/a	n/a	n/a	f	10	0.03000000000000001	2	f	1	0.9919785312376916
2	10	110	n/a	n/a	n/a	j	10	0.04000000000000001	1	j	1	0.9962008069269359
2	11	90	n/a	n/a	n/a	j	10	0.03000000000000001	1	j	1	0.9689079700037837
2	12	90	n/a	n/a	n/a	j	10	0.02000000000000001	1	j	1	0.9875030894763768
2	13	90	n/a	n/a	n/a	f	10	0.01000000000000001	1	f	1	0.99897251278162
2	14	90	n/a	n/a	n/a	j	10	1.040834085586084e-17	2	j	1	0.9549630559049547
2	15	110	n/a	n/a	n/a	j	10	0.01000000000000001	0	j	1	1.013879912439734
2	16	70	n/a	n/a	n/a	j	10	0.02000000000000001	2	j	1	1.056832517962903
2	17	110	n/a	n/a	n/a	f	10	0.03000000000000001	2	f	1	1.012189861387014
2	18	110	n/a	n/a	n/a	j	10	0.04000000000000001	1	j	1	1.409701598342508
2	19	90	n/a	n/a	n/a	j	10	0.03000000000000001	2	j	1	0.9998104111291468
2	20	110	n/a	n/a	n/a	j	10	0.04000000000000001	1	j	1	0.9631039798259735
2	21	90	n/a	n/a	n/a	f	10	0.03000000000000001	1	f	1	0.9825301552191377
2	22	90	n/a	n/a	n/a	j	10	0.02000000000000001	1	j	1	0.9874435043893754
2	23	90	n/a	n/a	n/a	j	10	0.01000000000000001	1	j	1	1.054999633692205
2	24	90	n/a	n/a	n/a	j	10	1.040834085586084e-17	2	j	1	0.9963510525412858
2	25	110	n/a	n/a	n/a	f	10	0.01000000000000001	1	f	1	0.9831057647243142
2	26	90	n/a	n/a	n/a	j	10	1.040834085586084e-17	0	j	1	1.011915314011276
2	27	70	n/a	n/a	n/a	j	10	0.01000000000000001	2	j	1	1.006971744354814
2	28	110	n/a	n/a	n/a	j	10	0.02000000000000001	2	j	1	1.011127308011055
2	29	110	n/a	n/a	n/a	f	10	0.03000000000000001	1	f	1	1.014074347913265
2	30	90	n/a	n/a	n/a	j	10	0.02000000000000001	2	j	1	0.9780253493227065
2	31	110	n/a	n/a	n/a	j	10	0.03000000000000001	1	j	1	0.9818961014971137
2	32	90	n/a	n/a	n/a	j	10	0.02000000000000001	1	j	1	1.105875349603593
2	33	90	n/a	n/a	n/a	f	10	0.01000000000000001	2	f	1	0.9428709824569523
2	34	110	n/a	n/a	n/a	j	10	0.02000000000000001	0	j	1	1.019812480546534
2	35	70	n/a	n/a	n/a	j	10	0.03000000000000001	2	j	1	1.104570178780705
2	36	110	n/a	n/a	n/a	j	10	0.04000000000000001	2	j	1	0.918621547985822
2	37	110	n/a	n/a	n/a	f	10	0.05000000000000002	0	f	1	0.962566003203392
2	38	70	n/a	n/a	n/a	j	10	0.06000000000000002	1	j	1	1.054522097110748
2	39	90	n/a	n/a	n/a	j	10	0.05000000000000002	2	j	1	0.9701498495414853
2	40	110	n/a	n/a	n/a	j	10	0.06000000000000002	1	j	1	1.110366471111774
2	41	90	n/a	n/a	n/a	f	10	0.05000000000000002	2	f	1	0.8730637333355844
2	42	110	n/a	n/a	n/a	j	10	0.06000000000000002	0	j	1	1.012281947769225
2	43	70	n/a	n/a	n/a	j	10	0.07000000000000002	1	j	1	1.023250456899405
2	44	90	n/a	n/a	n/a	j	10	0.06000000000000002	1	j	1	1.163990515749902
2	45	90	n/a	n/a	n/a	f	10	0.05000000000000002	2	f	1	1.007110871374607
2	46	110	n/a	n/a	n/a	j	10	0.06000000000000002	1	j	1	0.9808127353899181
2	47	90	n/a	n/a	n/a	j	10	0.05000000000000002	1	j	1	1.025206787511706
2	48	90	n/a	n/a	n/a	j	10	0.04000000000000001	1	j	1	1.028929859399796
2	49	90	n/a	n/a	n/a	f	10	0.03000000000000001	2	f	1	1.041062701959163
2	50	110	n/a	n/a	n/a	j	10	0.04000000000000001	2	j	1	1.052772176451981
2	51	110	n/a	n/a	n/a	j	10	0.05000000000000002	2	j	1	1.064917278010398
2	52	110	n/a	n/a	n/a	j	10	0.06000000000000002	2	j	1	1.036714698653668
2	53	110	n/a	n/a	n/a	f	10	0.07000000000000002	1	f	1	1.001665247604251
2	54	90	n/a	n/a	n/a	j	10	0.06000000000000002	1	j	1	0.9984430894255638
2	55	90	n/a	n/a	n/a	j	10	0.05000000000000002	1	j	1	1.027735306415707
2	56	90	n/a	n/a	n/a	j	10	0.04000000000000001	2	j	1	1.002148200757802
2	57	110	n/a	n/a	n/a	f	10	0.05000000000000002	1	f	1	0.9833386885002255
2	58	90	n/a	n/a	n/a	j	10	0.04000000000000001	1	j	1	0.9591032238677144
2	59	90	n/a	n/a	n/a	j	10	0.03000000000000001	1	j	1	0.9574097516015172
2	60	90	n/a	n/a	n/a	j	10	0.02000000000000001	0	j	1	1.040381607133895
2	61	70	n/a	n/a	n/a	f	10	0.03000000000000001	2	f	1	0.9923004047013819
2	62	110	n/a	n/a	n/a	j	10	0.04000000000000001	1	j	1	0.9373047626577318
2	63	90	n/a	n/a	n/a	j	10	0.03000000000000001	0	j	1	0.9721093159168959
2	64	70	n/a	n/a	n/a	j	10	0.04000000000000001	1	j	1	0.9669633284211159
2	65	90	n/a	n/a	n/a	f	10	0.03000000000000001	1	f	1	1.004718058276922
2	66	90	n/a	n/a	n/a	j	10	0.02000000000000001	2	j	1	1.009077465161681
2	67	110	n/a	n/a	n/a	j	10	0.03000000000000001	1	j	1	0.9958829246461391
2	68	90	n/a	n/a	n/a	j	10	0.02000000000000001	1	j	1	0.9838946261443198
2	69	90	n/a	n/a	n/a	f	10	0.01000000000000001	1	f	1	0.9646848388947546
2	70	90	n/a	n/a	n/a	j	10	1.040834085586084e-17	0	j	1	0.9616947495378554
2	71	70	n/a	n/a	n/a	j	10	0.01000000000000001	0	j	1	1.085729306563735
3	0	72	j	1	2.591994439717382	j	12	0.1	2	j	1	0.9166324310936034
3	1	112	n/a	n/a	n/a	j	12	0.11	1	j	1	0.9524912708438933
3	2	92	n/a	n/a	n/a	f	12	0.1	1	f	1	0.9324378836899996
3	3	92	n/a	n/a	n/a	j	12	0.09000000000000001	1	j	1	0.9361797729507089
3	4	92	n/a	n/a	n/a	j	12	0.08000000000000002	1	j	1	0.9388807746581733
3	5	92	n/a	n/a	n/a	j	12	0.07000000000000002	1	j	1	0.9992598900571465
3	6	92	n/a	n/a	n/a	j	12	0.06000000000000002	1	f	0	0.9951815879903734
3	7	132	n/a	n/a	n/a	j	12	0.05000000000000002	1	f	0	0.983149669598788
3	8	132	n/a	n/a	n/a	f	12	0.04000000000000001	1	j	0	1.188094835728407
3	9	132	n/a	n/a	n/a	j	12	0.03000000000000001	2	j	1	1.319953859783709
3	10	112	n/a	n/a	n/a	j	12	0.04000000000000001	2	j	1	0.8682969231158495
3	11	112	n/a	n/a	n/a	j	12	0.05000000000000002	0	j	1	0.9698941181413829
3	12	72	n/a	n/a	n/a	j	12	0.06000000000000002	0	f	0	0.9587437175214291
3	13	132	n/a	n/a	n/a	j	12	0.05000000000000002	1	j	1	0.8918718197382987
3	14	92	n/a	n/a	n/a	f	12	0.04000000000000001	0	f	1	1.191859246697277
3	15	72	n/a	n/a	n/a	j	12	0.05000000000000002	2	j	1	0.8455242877826095
3	16	112	n/a	n/a	n/a	j	12	0.06000000000000002	0	j	1	1.051260311156511
3	17	72	n/a	n/a	n/a	j	12	0.07000000000000002	1	j	1	1.127559202723205
3	18	92	n/a	n/a	n/a	j	12	0.06000000000000002	2	j	1	0.9624605178833008
3	19	112	n/a	n/a	n/a	j	12	0.07000000000000002	1	j	1	0.9594114129431546
3	20	92	n/a	n/a	n/a	f	12	0.06000000000000002	1	f	1	0.8504176805727184
3	21	92	n/a	n/a	n/a	j	12	0.05000000000000002	0	j	1	0.9172262870706618
3	22	72	n/a	n/a	n/a	j	12	0.06000000000000002	0	j	1	1.035307178739458
3	23	72	n/a	n/a	n/a	j	12	0.07000000000000002	1	j	1	0.9842678168788552
3	24	92	n/a	n/a	n/a	j	12	0.06000000000000002	1	f	0	0.9489882932975888
3	25	132	n/a	n/a	n/a	j	12	0.05000000000000002	1	j	1	1.066069351974875
3	26	92	n/a	n/a	n/a	f	12	0.04000000000000001	2	f	1	0.976191324647516
3	27	112	n/a	n/a	n/a	j	12	0.05000000000000002	1	j	1	0.9399165296927094
3	28	92	n/a	n/a	n/a	j	12	0.04000000000000001	0	j	1	0.9840451567433774
3	29	72	n/a	n/a	n/a	j	12	0.05000000000000002	1	j	1	1.002604069653898
3	30	92	n/a	n/a	n/a	j	12	0.04000000000000001	1	j	1	0.9657291467301548
3	31	92	n/a	n/a	n/a	j	12	0.03000000000000001	1	j	1	0.9528912608511746
3	32	92	n/a	n/a	n/a	f	12	0.02000000000000001	0	f	1	0.9176231413148344
3	33	72	n/a	n/a	n/a	j	12	0.03000000000000001	0	j	1	0.9376383251510561
3	34	72	n/a	n/a	n/a	j	12	0.04000000000000001	0	j	1	0.9826017147861421
3	35	72	n/a	n/a	n/a	j	12	0.05000000000000002	1	j	1	1.007562749087811
3	36	92	n/a	n/a	n/a	j	12	0.04000000000000001	1	j	1	0.9585062321275473
3	37	92	n/a	n/a	n/a	j	12	0.03000000000000001	1	j	1	1.042296313680708
3	38	92	n/a	n/a	n/a	f	12	0.02000000000000001	2	f	1	1.001374449580908
3	39	112	n/a	n/a	n/a	j	12	0.03000000000000001	1	j	1	0.9673422211781144
3	40	92	n/a	n/a	n/a	j	12	0.02000000000000001	0	j	1	0.9338841773569584
3	41	72	n/a	n/a	n/a	j	12	0.03000000000000001	0	j	1	1.010083285160363
3	42	72	n/a	n/a	n/a	j	12	0.04000000000000001	1	j	1	1.083030014764518
3	43	92	n/a	n/a	n/a	j	12	0.03000000000000001	2	j	1	1.007074093911797
3	44	112	n/a	n/a	n/a	f	12	0.04000000000000001	1	f	1	1.093033757992089
3	45	92	n/a	n/a	n/a	j	12	0.03000000000000001	2	j	1	1.048753744456917
3	46	112	n/a	n/a	n/a	j	12	0.04000000000000001	2	j	1	1.068872989155352
3	47	112	n/a	n/a	n/a	j	12	0.05000000000000002	2	j	1	1.05080643761903
3	48	112	n/a	n/a	n/a	j	12	0.06000000000000002	2	f	0	1.02397488662973
3	49	132	n/a	n/a	n/a	j	12	0.07000000000000002	1	j	1	1.53962253825739
3	50	92	n/a	n/a	n/a	f	12	0.06000000000000002	2	f	1	0.9683965072035789
3	51	112	n/a	n/a	n/a	j	12	0.07000000000000002	1	j	1	0.9404941345565021
3	52	92	n/a	n/a	n/a	j	12	0.06000000000000002	1	j	1	1.007544788066298
3	53	92	n/a	n/a	n/a	j	12	0.05000000000000002	1	j	1	1.067489131353796
3	54	92	n/a	n/a	n/a	j	12	0.04000000000000001	2	j	1	0.9993884689174592
3	55	112	n/a	n/a	n/a	j	12	0.05000000000000002	1	j	1	1.002326385583729
3	56	92	n/a	n/a	n/a	f	12	0.04000000000000001	1	f	1	0.9502997356466949
3	57	92	n/a	n/a	n/a	j	12	0.03000000000000001	0	j	1	0.8898809924721718
3	58	72	n/a	n/a	n/a	j	12	0.04000000000000001	0	j	1	1.084959261119366
3	59	72	n/a	n/a	n/a	j	12	0.05000000000000002	2	j	1	1.162126555573195
3	60	112	n/a	n/a	n/a	j	12	0.06000000000000002	2	j	1	1.006032066885382
3	61	112	n/a	n/a	n/a	j	12	0.07000000000000002	1	j	1	0.980065212585032
3	62	92	n/a	n/a	n/a	f	12	0.06000000000000002	1	f	1	0.9907791311852634
3	63	92	n/a	n/a	n/a	j	12	0.05000000000000002	1	j	1	0.940915506798774
3	64	92	n/a	n/a	n/a	j	12	0.04000000000000001	0	j	1	1.040036925580353
3	65	72	n/a	n/a	n/a	j	12	0.05000000000000002	2	j	1	0.9867584183812141
3	66	112	n/a	n/a	n/a	j	12	0.06000000000000002	1	j	1	1.007822471670806
3	67	92	n/a	n/a	n/a	j	12	0.05000000000000002	1	j	1	1.082487761508673
3	68	92	n/a	n/a	n/a	f	12	0.04000000000000001	2	f	1	0.9905288168229163
3	69	112	n/a	n/a	n/a	j	12	0.05000000000000002	1	j	1	1.03450776822865
3	70	92	n/a	n/a	n/a	j	12	0.04000000000000001	2	j	1	0.9191284491680562
3	71	112	n/a	n/a	n/a	j	12	0.05000000000000002	0	j	1	1.01044108113274
4	0	61	f	1	6.224947520997375	f	1	0.1	2	f	1	0.4732937486842275
4	1	101	n/a	n/a	n/a	j	1	0.11	1	j	1	0.4622334386222064
4	2	81	n/a	n/a	n/a	f	1	0.1	1	f	1	0.4737747060135007
4	3	81	n/a	n/a	n/a	f	1	0.09000000000000001	1	f	1	0.5032103266566992
4	4	81	n/a	n/a	n/a	f	1	0.08000000000000002	2	f	1	0.5391247598454356
4	5	101	n/a	n/a	n/a	j	1	0.09000000000000001	2	j	1	0.5522226532921195
4	6	101	n/a	n/a	n/a	f	1	0.1	2	f	1	0.5306887612678111
4	7	101	n/a	n/a	n/a	f	1	0.11	2	f	1	0.5346997808665037
4	8	101	n/a	n/a	n/a	f	1	0.12	2	f	1	0.5629910249263048
4	9	101	n/a	n/a	n/a	j	1	0.13	2	j	1	0.5360645367763937
4	10	101	n/a	n/a	n/a	f	1	0.14	2	f	1	0.4289119555614889
4	11	101	n/a	n/a	n/a	f	1	0.15	1	f	1	0.4727691714651883
4	12	81	n/a	n/a	n/a	f	1	0.14	1	f	1	0.3744571409188211
4	13	81	n/a	n/a	n/a	j	1	0.13	1	j	1	0.42791354842484
4	14	81	n/a	n/a	n/a	f	1	0.12	1	f	1	0.4145385418087244
4	15	81	n/a	n/a	n/a	f	1	0.11	1	f	1	0.4498779359273612
4	16	81	n/a	n/a	n/a	f	1	0.1	1	f	1	0.4456357033923268
4	17	81	n/a	n/a	n/a	j	1	0.09000000000000002	1	j	1	0.4666889230720699
4	18	81	n/a	n/a	n/a	f	1	0.08000000000000003	1	f	1	0.4467165037058294
4	19	81	n/a	n/a	n/a	f	1	0.07000000000000003	1	f	1	0.4816598990000784
4	20	81	n/a	n/a	n/a	f	1	0.06000000000000003	2	f	1	0.5016947546973825
4	21	101	n/a	n/a	n/a	j	1	0.07000000000000003	2	j	1	0.4644429348409176
4	22	101	n/a	n/a	n/a	f	1	0.08000000000000003	1	f	1	0.4536089906468987
4	23	81	n/a	n/a	n/a	f	1	0.07000000000000003	1	f	1	0.4744090451858938
4	24	81	n/a	n/a	n/a	f	1	0.06000000000000003	2	f	1	0.4247256023809314
4	25	101	n/a	n/a	n/a	j	1	0.07000000000000003	1	j	1	0.4842066643759608
4	26	81	n/a	n/a	n/a	f	1	0.06000000000000003	2	f	1	0.4406479438766837
4	27	101	n/a	n/a	n/a	f	1	0.07000000000000003	1	f	1	0.4602115354500711
4	28	81	n/a	n/a	n/a	f	1	0.06000000000000003	2	f	1	0.4966414235532284
4	29	101	n/a	n/a	n/a	j	1	0.07000000000000003	2	j	1	0.500475968234241
4	30	101	n/a	n/a	n/a	f	1	0.08000000000000003	2	f	1	0.4964367239736021
4	31	101	n/a	n/a	n/a	f	1	0.09000000000000002	2	f	1	0.5469634821638465
4	32	101	n/a	n/a	n/a	f	1	0.1	2	f	1	0.4964646636508405
4	33	101	n/a	n/a	n/a	j	1	0.11	2	j	1	0.467242865357548
4	34	101	n/a	n/a	n/a	f	1	0.12	1	f	1	0.4628044865094125
4	35	81	n/a	n/a	n/a	f	1	0.11	1	f	1	0.4672001008875668
4	36	81	n/a	n/a	n/a	f	1	0.1	1	f	1	0.4219473386183381
4	37	81	n/a	n/a	n/a	j	1	0.09000000000000002	1	j	1	0.442060595843941
4	38	81	n/a	n/a	n/a	f	1	0.08000000000000003	1	f	1	0.4540893784724176
4	39	81	n/a	n/a	n/a	f	1	0.07000000000000003	1	f	1	0.4750747447833419
4	40	81	n/a	n/a	n/a	f	1	0.06000000000000003	2	f	1	0.4860267187468708
4	41	101	n/a	n/a	n/a	j	1	0.07000000000000003	2	j	1	0.4680910264141858
4	42	101	n/a	n/a	n/a	f	1	0.08000000000000003	2	f	1	0.4878527605906129
4	43	101	n/a	n/a	n/a	f	1	0.09000000000000002	2	f	1	0.5088577987626195
4	44	101	n/a	n/a	n/a	f	1	0.1	2	f	1	0.4970354265533388
4	45	101	n/a	n/a	n/a	j	1	0.11	1	j	1	0.4849621690809727
4	46	81	n/a	n/a	n/a	f	1	0.1	2	f	1	0.5119590763933957
4	47	101	n/a	n/a	n/a	f	1	0.11	2	f	1	0.5069014681503177
4	48	101	n/a	n/a	n/a	f	1	0.12	1	f	1	0.4858622183091938
4	49	81	n/a	n/a	n/a	j	1	0.11	1	j	1	0.4485434000380337
4	50	81	n/a	n/a	n/a	f	1	0.1	1	f	1	0.4777991250157356
4	51	81	n/a	n/a	n/a	f	1	0.09000000000000002	2	f	1	0.4897312596440315
4	52	101	n/a	n/a	n/a	f	1	0.1	2	f	1	0.4697531377896667
4	53	101	n/a	n/a	n/a	j	1	0.11	1	j	1	0.475704237818718
4	54	81	n/a	n/a	n/a	f	1	0.1	1	f	1	0.4878379348665476
4	55	81	n/a	n/a	n/a	f	1	0.09000000000000002	2	f	1	0.5086972899734974
4	56	101	n/a	n/a	n/a	f	1	0.1	2	f	1	0.4756611883640289
4	57	101	n/a	n/a	n/a	j	1	0.11	1	j	1	0.4636452351696789
4	58	81	n/a	n/a	n/a	f	1	0.1	1	f	1	0.4743303586728871
4	59	81	n/a	n/a	n/a	f	1	0.09000000000000002	1	f	1	0.4625496105290949
4	60	81	n/a	n/a	n/a	f	1	0.08000000000000003	1	f	1	0.4734844779595733
4	61	81	n/a	n/a	n/a	j	1	0.07000000000000003	2	j	1	0.4449805519543588
4	62	101	n/a	n/a	n/a	f	1	0.08000000000000003	1	f	1	0.5134296026080847
4	63	81	n/a	n/a	n/a	f	1	0.07000000000000003	2	f	1	0.4863431756384671
4	64	101	n/a	n/a	n/a	f	1	0.08000000000000003	2	f	1	0.5064051155932248
4	65	101	n/a	n/a	n/a	j	1	0.09000000000000002	2	j	1	0.4630414014682174
4	66	101	n/a	n/a	n/a	f	1	0.1	1	f	1	0.5002550189383328
4	67	81	n/a	n/a	n/a	f	1	0.09000000000000002	2	f	1	0.4972754777409136
4	68	101	n/a	n/a	n/a	f	1	0.1	2	f	1	0.5123533639125526
4	69	101	n/a	n/a	n/a	j	1	0.11	2	j	1	0.4782324717380106
4	70	101	n/a	n/a	n/a	f	1	0.12	2	j	0	0.4973624316044152
4	71	121	n/a	n/a	n/a	f	1	0.11	2	f	1	0.4922697572037578
5	0	111	f	1	2.467877204529941	f	11	0.1	0	f	1	0.8926201974973083
5	1	71	n/a	n/a	n/a	f	11	0.11	1	f	1	0.9044716497883201
5	2	91	n/a	n/a	n/a	j	11	0.1	1	j	1	0.9733982365578413
5	3	91	n/a	n/a	n/a	f	11	0.09000000000000001	1	f	1	0.953343708999455
5	4	91	n/a	n/a	n/a	f	11	0.08000000000000002	1	f	1	0.9582530669867992
5	5	91	n/a	n/a	n/a	f	11	0.07000000000000002	1	f	1	1.011127308011055
5	6	91	n/a	n/a	n/a	f	11	0.06000000000000002	1	f	1	0.9283336382359266
5	7	91	n/a	n/a	n/a	f	11	0.05000000000000002	0	f	1	0.949068405199796
5	8	71	n/a	n/a	n/a	j	11	0.06000000000000002	1	j	1	0.9842230570502579
5	9	91	n/a	n/a	n/a	f	11	0.05000000000000002	1	f	1	0.9239970380440354
5	10	91	n/a	n/a	n/a	f	11	0.04000000000000001	0	f	1	1.000053027644753
5	11	71	n/a	n/a	n/a	f	11	0.05000000000000002	1	f	1	1.035685501527041
5	12	91	n/a	n/a	n/a	f	11	0.04000000000000001	2	f	1	0.9586730133742094
5	13	111	n/a	n/a	n/a	f	11	0.05000000000000002	1	f	1	0.9378629811108112
5	14	91	n/a	n/a	n/a	j	11	0.04000000000000001	0	j	1	0.9984861388802528
5	15	71	n/a	n/a	n/a	f	11	0.05000000000000002	1	f	1	0.94863220769912
5	16	91	n/a	n/a	n/a	f	11	0.04000000000000001	1	f	1	0.9764946671202779
5	17	91	n/a	n/a	n/a	f	11	0.03000000000000001	1	f	1	0.9094839273020625
5	18	91	n/a	n/a	n/a	f	11	0.02000000000000001	0	f	1	0.9625403448008001
5	19	71	n/a	n/a	n/a	f	11	0.03000000000000001	1	f	1	0.9504548283293843
5	20	91	n/a	n/a	n/a	j	11	0.02000000000000001	0	j	1	0.889187638182193
5	21	71	n/a	n/a	n/a	f	11	0.03000000000000001	0	f	1	0.9323449423536658
5	22	71	n/a	n/a	n/a	f	11	0.04000000000000001	0	f	1	0.9462907123379409
5	23	71	n/a	n/a	n/a	f	11	0.05000000000000002	1	f	1	0.9572643530555069
5	24	91	n/a	n/a	n/a	f	11	0.04000000000000001	1	f	1	0.9621717152185738
5	25	91	n/a	n/a	n/a	f	11	0.03000000000000001	1	f	1	0.9651275938376784
5	26	91	n/a	n/a	n/a	j	11	0.02000000000000001	1	j	1	0.9382860641926527
5	27	91	n/a	n/a	n/a	f	11	0.01000000000000001	0	f	1	0.9978007674217224
5	28	71	n/a	n/a	n/a	f	11	0.02000000000000001	1	f	1	0.9697569864802063
5	29	91	n/a	n/a	n/a	f	11	0.01000000000000001	0	f	1	0.9589333068579435
5	30	71	n/a	n/a	n/a	f	11	0.02000000000000001	0	f	1	1.074885384179652
5	31	71	n/a	n/a	n/a	f	11	0.03000000000000001	2	f	1	0.9439323958940804
5	32	111	n/a	n/a	n/a	j	11	0.04000000000000001	0	j	1	0.9623148334212601
5	33	71	n/a	n/a	n/a	f	11	0.05000000000000002	1	f	1	0.9256828129291534
5	34	91	n/a	n/a	n/a	f	11	0.04000000000000001	0	f	1	1.017417387105525
5	35	71	n/a	n/a	n/a	f	11	0.05000000000000002	1	f	1	1.052484229207039
5	36	91	n/a	n/a	n/a	f	11	0.04000000000000001	2	f	1	0.9446841944009066
5	37	111	n/a	n/a	n/a	f	11	0.05000000000000002	1	f	1	1.028453178703785
5	38	91	n/a	n/a	n/a	j	11	0.04000000000000001	2	j	1	0.9365714946761727
5	39	111	n/a	n/a	n/a	f	11	0.05000000000000002	0	f	1	1.012353506870568
5	40	71	n/a	n/a	n/a	f	11	0.06000000000000002	1	f	1	1.071075072512031
5	41	91	n/a	n/a	n/a	f	11	0.05000000000000002	2	f	1	1.106254242826253
5	42	111	n/a	n/a	n/a	f	11	0.06000000000000002	2	f	1	0.9100615321658552
5	43	111	n/a	n/a	n/a	f	11	0.07000000000000002	0	f	1	0.8411965263076127
5	44	71	n/a	n/a	n/a	j	11	0.08000000000000002	0	j	1	0.9179912004619837
5	45	71	n/a	n/a	n/a	f	11	0.09000000000000001	1	f	1	1.041950491722673
5	46	91	n/a	n/a	n/a	f	11	0.08000000000000002	1	f	1	1.030962026212364
5	47	91	n/a	n/a	n/a	f	11	0.07000000000000002	1	f	1	0.9227594356052577
5	48	91	n/a	n/a	n/a	f	11	0.06000000000000002	1	f	1	0.9439517823047936
5	49	91	n/a	n/a	n/a	f	11	0.05000000000000002	1	f	1	0.9708010093308985
5	50	91	n/a	n/a	n/a	j	11	0.04000000000000001	1	j	1	0.9438457265496254
5	51	91	n/a	n/a	n/a	f	11	0.03000000000000001	0	f	1	0.9466336825862527
5	52	71	n/a	n/a	n/a	f	11	0.04000000000000001	1	f	1	0.9607741734944284
5	53	91	n/a	n/a	n/a	f	11	0.03000000000000001	1	f	1	0.979381836950779
5	54	91	n/a	n/a	n/a	f	11	0.02000000000000001	1	f	1	0.9046817654743791
5	55	91	n/a	n/a	n/a	f	11	0.01000000000000001	0	f	1	0.9714792533777654
5	56	71	n/a	n/a	n/a	j	11	0.02000000000000001	1	j	1	0.9272819175384939
5	57	91	n/a	n/a	n/a	f	11	0.01000000000000001	0	f	1	0.9224004992283881
5	58	71	n/a	n/a	n/a	f	11	0.02000000000000001	0	f	1	0.8873764215968549
5	59	71	n/a	n/a	n/a	f	11	0.03000000000000001	0	f	1	1.079850621055812
5	60	71	n/a	n/a	n/a	f	11	0.04000000000000001	2	f	1	1.051965354010463
5	61	111	n/a	n/a	n/a	f	11	0.05000000000000002	2	f	1	0.9539503934793174
5	62	111	n/a	n/a	n/a	j	11	0.06000000000000002	1	j	1	0.9522495092824101
5	63	91	n/a	n/a	n/a	f	11	0.05000000000000002	1	f	1	0.9250048538669944
5	64	91	n/a	n/a	n/a	f	11	0.04000000000000001	0	f	1	0.9939023605547845
5	65	71	n/a	n/a	n/a	f	11	0.05000000000000002	1	f	1	1.048608630429953
5	66	91	n/a	n/a	n/a	f	11	0.04000000000000001	2	f	1	1.014861498959363
5	67	111	n/a	n/a	n/a	f	11	0.05000000000000002	1	f	1	0.9227243685163558
5	68	91	n/a	n/a	n/a	j	11	0.04000000000000001	0	j	1	0.9415729390457273
5	69	71	n/a	n/a	n/a	f	11	0.05000000000000002	1	f	1	0.9656079807318747
5	70	91	n/a	n/a	n/a	f	11	0.04000000000000001	1	f	1	0.931265567895025
5	71	91	n/a	n/a	n/a	f	11	0.03000000000000001	0	f	1	0.9847345198504627
6	0	64	j	1	2.104150232393295	j	4	0.1	2	j	1	0.402610398363322
6	1	104	n/a	n/a	n/a	j	4	0.11	1	j	1	0.4366044234484434
6	2	84	n/a	n/a	n/a	f	4	0.1	1	f	1	0.4424329316243529
6	3	84	n/a	n/a	n/a	j	4	0.09000000000000001	1	j	1	0.454534983728081
6	4	84	n/a	n/a	n/a	j	4	0.08000000000000002	1	j	1	0.4371372680179775
6	5	84	n/a	n/a	n/a	j	4	0.07000000000000002	1	j	1	0.4835050418041646
6	6	84	n/a	n/a	n/a	j	4	0.06000000000000002	2	j	1	0.4624860342592001
6	7	104	n/a	n/a	n/a	j	4	0.07000000000000002	2	j	1	0.4734790613874793
6	8	104	n/a	n/a	n/a	f	4	0.08000000000000002	2	f	1	0.4373547970317304
6	9	104	n/a	n/a	n/a	j	4	0.09000000000000001	1	j	1	0.4254295048303902
6	10	84	n/a	n/a	n/a	j	4	0.08000000000000002	1	j	1	0.4197797519154847
6	11	84	n/a	n/a	n/a	j	4	0.07000000000000002	1	j	1	0.4813477182760835
6	12	84	n/a	n/a	n/a	j	4	0.06000000000000002	2	j	1	0.4053327827714384
6	13	104	n/a	n/a	n/a	j	4	0.07000000000000002	1	j	1	0.4659830247983336
6	14	84	n/a	n/a	n/a	f	4	0.06000000000000002	2	f	1	0.4531770702451468
6	15	104	n/a	n/a	n/a	j	4	0.07000000000000002	1	j	1	0.4943458284251392
6	16	84	n/a	n/a	n/a	j	4	0.06000000000000002	2	j	1	0.3713809526525438
6	17	104	n/a	n/a	n/a	j	4	0.07000000000000002	1	j	1	0.4722770950756967
6	18	84	n/a	n/a	n/a	j	4	0.06000000000000002	2	j	1	0.4108884539455175
6	19	104	n/a	n/a	n/a	j	4	0.07000000000000002	1	j	1	0.4631109647452831
6	20	84	n/a	n/a	n/a	f	4	0.06000000000000002	2	f	1	0.4441543431021273
6	21	104	n/a	n/a	n/a	j	4	0.07000000000000002	1	j	1	0.4560807757079601
6	22	84	n/a	n/a	n/a	j	4	0.06000000000000002	2	j	1	0.4910635147243738
6	23	104	n/a	n/a	n/a	j	4	0.07000000000000002	2	j	1	0.462773410603404
6	24	104	n/a	n/a	n/a	j	4	0.08000000000000002	1	j	1	0.4290111688897014
6	25	84	n/a	n/a	n/a	j	4	0.07000000000000002	1	j	1	0.467969860881567
6	26	84	n/a	n/a	n/a	f	4	0.06000000000000002	2	f	1	0.4146483037620783
6	27	104	n/a	n/a	n/a	j	4	0.07000000000000002	1	j	1	0.4509310815483332
6	28	84	n/a	n/a	n/a	j	4	0.06000000000000002	2	j	1	0.4536799802444875
6	29	104	n/a	n/a	n/a	j	4	0.07000000000000002	1	j	1	0.4658795348368585
6	30	84	n/a	n/a	n/a	j	4	0.06000000000000002	2	j	1	0.444850548170507
6	31	104	n/a	n/a	n/a	j	4	0.07000000000000002	1	j	1	0.4898675354197621
6	32	84	n/a	n/a	n/a	f	4	0.06000000000000002	2	f	1	0.4169330652803183
6	33	104	n/a	n/a	n/a	j	4	0.07000000000000002	1	j	1	0.467750336509198
6	34	84	n/a	n/a	n/a	j	4	0.06000000000000002	2	j	1	0.4274157704785466
6	35	104	n/a	n/a	n/a	j	4	0.07000000000000002	1	j	1	0.4735261020250618
6	36	84	n/a	n/a	n/a	j	4	0.06000000000000002	2	j	1	0.4366469029337168
6	37	104	n/a	n/a	n/a	j	4	0.07000000000000002	1	j	1	0.4727084464393556
6	38	84	n/a	n/a	n/a	f	4	0.06000000000000002	2	f	1	0.4516027686186135
6	39	104	n/a	n/a	n/a	j	4	0.07000000000000002	1	j	1	0.479583827778697
6	40	84	n/a	n/a	n/a	j	4	0.06000000000000002	2	j	1	0.4915912277065217
6	41	104	n/a	n/a	n/a	j	4	0.07000000000000002	2	j	1	0.4475763533264399
6	42	104	n/a	n/a	n/a	j	4	0.08000000000000002	1	j	1	0.459552108310163
6	43	84	n/a	n/a	n/a	j	4	0.07000000000000002	2	j	1	0.4705094983801246
6	44	104	n/a	n/a	n/a	f	4	0.08000000000000002	2	f	1	0.4574823090806603
6	45	104	n/a	n/a	n/a	j	4	0.09000000000000001	1	j	1	0.4863112447783351
6	46	84	n/a	n/a	n/a	j	4	0.08000000000000002	2	j	1	0.4744204487651587
6	47	104	n/a	n/a	n/a	j	4	0.09000000000000001	1	j	1	0.4853347898460925
6	48	84	n/a	n/a	n/a	j	4	0.08000000000000002	2	j	1	0.489351796451956
6	49	104	n/a	n/a	n/a	j	4	0.09000000000000001	2	j	1	0.4843366676941514
6	50	104	n/a	n/a	n/a	f	4	0.1	1	f	1	0.4633199404925108
6	51	84	n/a	n/a	n/a	j	4	0.09000000000000001	1	j	1	0.4188087140209973
6	52	84	n/a	n/a	n/a	j	4	0.08000000000000002	1	j	1	0.4392772009596229
6	53	84	n/a	n/a	n/a	j	4	0.07000000000000002	1	j	1	0.4432323421351612
6	54	84	n/a	n/a	n/a	j	4	0.06000000000000002	1	j	1	0.4461853690445423
6	55	84	n/a	n/a	n/a	j	4	0.05000000000000002	2	j	1	0.4820194053463638
6	56	104	n/a	n/a	n/a	f	4	0.06000000000000002	2	f	1	0.4611851396039128
6	57	104	n/a	n/a	n/a	j	4	0.07000000000000002	2	j	1	0.4328904743306339
6	58	104	n/a	n/a	n/a	j	4	0.08000000000000002	1	j	1	0.4761076490394771
6	59	84	n/a	n/a	n/a	j	4	0.07000000000000002	2	j	1	0.4652052819728851
6	60	104	n/a	n/a	n/a	j	4	0.08000000000000002	1	j	1	0.4519602791406214
6	61	84	n/a	n/a	n/a	j	4	0.07000000000000002	1	j	1	0.4950132383964956
6	62	84	n/a	n/a	n/a	f	4	0.06000000000000002	2	f	1	0.4279791205190122
6	63	104	n/a	n/a	n/a	j	4	0.07000000000000002	1	j	1	0.4449551785364747
6	64	84	n/a	n/a	n/a	j	4	0.06000000000000002	2	j	1	0.4658610033802688
6	65	104	n/a	n/a	n/a	j	4	0.07000000000000002	2	j	1	0.4281749818474054
6	66	104	n/a	n/a	n/a	j	4	0.08000000000000002	1	j	1	0.4548813756555319
6	67	84	n/a	n/a	n/a	j	4	0.07000000000000002	1	j	1	0.4838913474231958
6	68	84	n/a	n/a	n/a	f	4	0.06000000000000002	2	f	1	0.4240319626405835
6	69	104	n/a	n/a	n/a	j	4	0.07000000000000002	1	j	1	0.4507868229411542
6	70	84	n/a	n/a	n/a	j	4	0.06000000000000002	2	j	1	0.4702443592250347
6	71	104	n/a	n/a	n/a	j	4	0.07000000000000002	2	j	1	0.4426390561275184
7	0	106	j	1	2.172878962010145	j	6	0.1	0	j	1	0.5632310761138797
7	1	66	n/a	n/a	n/a	f	6	0.11	1	f	1	0.5932867811061442
7	2	86	n/a	n/a	n/a	j	6	0.1	1	j	1	0.5802564555779099
7	3	86	n/a	n/a	n/a	j	6	0.09000000000000001	1	j	1	0.607988340780139
7	4	86	n/a	n/a	n/a	j	6	0.08000000000000002	1	j	1	0.6361994724720716
7	5	86	n/a	n/a	n/a	f	6	0.07000000000000002	1	f	1	0.5842623431235552
7	6	86	n/a	n/a	n/a	j	6	0.06000000000000002	1	j	1	0.6121330703608692
7	7	86	n/a	n/a	n/a	j	6	0.05000000000000002	1	j	1	0.632252314593643
7	8	86	n/a	n/a	n/a	j	6	0.04000000000000001	2	j	1	0.6002288754098117
7	9	106	n/a	n/a	n/a	f	6	0.05000000000000002	1	f	1	0.596022279933095
7	10	86	n/a	n/a	n/a	j	6	0.04000000000000001	1	j	1	0.616120426915586
7	11	86	n/a	n/a	n/a	j	6	0.03000000000000001	1	j	1	0.6196849858388305
7	12	86	n/a	n/a	n/a	j	6	0.02000000000000001	2	j	1	0.6469014170579612
7	13	106	n/a	n/a	n/a	f	6	0.03000000000000001	2	f	1	0.5859181825071573
7	14	106	n/a	n/a	n/a	j	6	0.04000000000000001	1	j	1	0.5977109051309526
7	15	86	n/a	n/a	n/a	j	6	0.03000000000000001	1	j	1	0.5946099124848843
7	16	86	n/a	n/a	n/a	j	6	0.02000000000000001	1	j	1	0.6399370850995183
7	17	86	n/a	n/a	n/a	f	6	0.01000000000000001	2	f	1	0.5877750148065388
7	18	106	n/a	n/a	n/a	j	6	0.02000000000000001	1	j	1	0.5907485689967871
7	19	86	n/a	n/a	n/a	j	6	0.01000000000000001	1	j	1	0.6357096773572266
7	20	86	n/a	n/a	n/a	j	6	1.040834085586084e-17	2	j	1	0.5586604126729071
7	21	106	n/a	n/a	n/a	f	6	0.01000000000000001	0	f	1	0.6116010807454586
7	22	66	n/a	n/a	n/a	j	6	0.02000000000000001	2	j	1	0.5675927642732859
7	23	106	n/a	n/a	n/a	j	6	0.03000000000000001	1	j	1	0.6105718831531703
7	24	86	n/a	n/a	n/a	j	6	0.02000000000000001	2	j	1	0.5235271425917745
7	25	106	n/a	n/a	n/a	f	6	0.03000000000000001	0	f	1	0.5994246187619865
7	26	66	n/a	n/a	n/a	j	6	0.04000000000000001	1	j	1	0.5715074208565056
7	27	86	n/a	n/a	n/a	j	6	0.03000000000000001	1	j	1	0.6392936226911843
7	28	86	n/a	n/a	n/a	j	6	0.02000000000000001	2	j	1	0.6041811648756266
7	29	106	n/a	n/a	n/a	f	6	0.03000000000000001	1	f	1	0.634303867816925
7	30	86	n/a	n/a	n/a	j	6	0.02000000000000001	2	j	1	0.6070019071921706
7	31	106	n/a	n/a	n/a	j	6	0.03000000000000001	1	j	1	0.5621631052345037
7	32	86	n/a	n/a	n/a	j	6	0.02000000000000001	0	j	1	0.6850244915112853
7	33	66	n/a	n/a	n/a	f	6	0.03000000000000001	2	f	1	0.584321073256433
7	34	106	n/a	n/a	n/a	j	6	0.04000000000000001	1	j	1	0.572928911074996
7	35	86	n/a	n/a	n/a	j	6	0.03000000000000001	1	j	1	0.624241394456476
7	36	86	n/a	n/a	n/a	j	6	0.02000000000000001	2	j	1	0.6460806247778237
7	37	106	n/a	n/a	n/a	f	6	0.03000000000000001	2	f	1	0.6020894139073789
7	38	106	n/a	n/a	n/a	j	6	0.04000000000000001	1	j	1	0.5567519781179726
7	39	86	n/a	n/a	n/a	j	6	0.03000000000000001	1	j	1	0.5622292477637529
7	40	86	n/a	n/a	n/a	j	6	0.02000000000000001	0	j	1	0.6321856020949781
7	41	66	n/a	n/a	n/a	f	6	0.03000000000000001	2	f	1	0.5548982820473611
7	42	106	n/a	n/a	n/a	j	6	0.04000000000000001	1	j	1	0.6305688209831715
7	43	86	n/a	n/a	n/a	j	6	0.03000000000000001	2	j	1	0.6194931161589921
7	44	106	n/a	n/a	n/a	j	6	0.04000000000000001	1	j	1	0.5828807665966451
7	45	86	n/a	n/a	n/a	f	6	0.03000000000000001	1	f	1	0.5698133790865541
7	46	86	n/a	n/a	n/a	j	6	0.02000000000000001	1	j	1	0.5439232154749334
7	47	86	n/a	n/a	n/a	j	6	0.01000000000000001	0	j	1	0.6434406330808997
7	48	66	n/a	n/a	n/a	j	6	0.02000000000000001	2	j	1	0.6168251847848296
7	49	106	n/a	n/a	n/a	f	6	0.03000000000000001	2	f	1	0.5316546675749123
7	50	106	n/a	n/a	n/a	j	6	0.04000000000000001	0	j	1	0.5906362412497401
7	51	66	n/a	n/a	n/a	j	6	0.05000000000000002	1	j	1	0.6335432305932045
7	52	86	n/a	n/a	n/a	j	6	0.04000000000000001	2	j	1	0.6612888001836836
7	53	106	n/a	n/a	n/a	f	6	0.05000000000000002	2	f	1	0.6016631950624287
7	54	106	n/a	n/a	n/a	j	6	0.06000000000000002	1	j	1	0.6203985819593072
7	55	86	n/a	n/a	n/a	j	6	0.05000000000000002	1	j	1	0.5750907957553864
7	56	86	n/a	n/a	n/a	j	6	0.04000000000000001	1	j	1	0.6504004034213722
7	57	86	n/a	n/a	n/a	f	6	0.03000000000000001	2	f	1	0.5183343994431198
7	58	106	n/a	n/a	n/a	j	6	0.04000000000000001	0	j	1	0.5621499908156693
7	59	66	n/a	n/a	n/a	j	6	0.05000000000000002	1	j	1	0.6052286084741354
7	60	86	n/a	n/a	n/a	j	6	0.04000000000000001	1	j	1	0.6901670577935874
7	61	86	n/a	n/a	n/a	f	6	0.03000000000000001	2	f	1	0.5187075901776552
7	62	106	n/a	n/a	n/a	j	6	0.04000000000000001	0	j	1	0.5711681563407183
7	63	66	n/a	n/a	n/a	j	6	0.05000000000000002	1	j	1	0.6148494677618146
7	64	86	n/a	n/a	n/a	j	6	0.04000000000000001	1	j	1	0.6679281224496663
7	65	86	n/a	n/a	n/a	f	6	0.03000000000000001	2	f	1	0.5761476480402052
7	66	106	n/a	n/a	n/a	j	6	0.04000000000000001	1	j	1	0.6040605693124235
7	67	86	n/a	n/a	n/a	j	6	0.03000000000000001	1	j	1	0.6078523499891162
7	68	86	n/a	n/a	n/a	j	6	0.02000000000000001	2	j	1	0.6529748225584626
7	69	106	n/a	n/a	n/a	f	6	0.03000000000000001	2	f	1	0.5610284223221242
7	70	106	n/a	n/a	n/a	j	6	0.04000000000000001	1	j	1	0.603842185344547
7	71	86	n/a	n/a	n/a	j	6	0.03000000000000001	1	f	0	0.6307806479744613
8	0	125	f	1	1.880285792052746	f	5	0.1	1	f	1	1.409414221066982
8	1	85	n/a	n/a	n/a	j	5	0.09000000000000001	1	f	0	0.5575944371521473
8	2	125	n/a	n/a	n/a	f	5	0.1	1	j	0	0.6175473337061703
8	3	125	n/a	n/a	n/a	f	5	0.09000000000000001	1	f	1	0.6522920173592865
8	4	85	n/a	n/a	n/a	f	5	0.08000000000000002	1	j	0	0.6252141431905329
8	5	125	n/a	n/a	n/a	j	5	0.07000000000000002	1	f	0	0.8054773840121925
8	6	125	n/a	n/a	n/a	f	5	0.06000000000000002	2	f	1	0.6344104935415089
8	7	105	n/a	n/a	n/a	f	5	0.07000000000000002	1	f	1	0.6073884982615709
8	8	85	n/a	n/a	n/a	f	5	0.06000000000000002	1	f	1	0.587021220009774
8	9	85	n/a	n/a	n/a	j	5	0.05000000000000002	1	j	1	0.6151804644614458
8	10	85	n/a	n/a	n/a	f	5	0.04000000000000001	1	f	1	0.5640766713768244
8	11	85	n/a	n/a	n/a	f	5	0.03000000000000001	1	f	1	0.5992421573027968
8	12	85	n/a	n/a	n/a	f	5	0.02000000000000001	1	f	1	0.6051884102635086
8	13	85	n/a	n/a	n/a	j	5	0.01000000000000001	2	j	1	0.570317714009434
8	14	105	n/a	n/a	n/a	f	5	0.02000000000000001	1	f	1	0.5650220504030585
8	15	85	n/a	n/a	n/a	f	5	0.01000000000000001	0	f	1	0.5540886083617806
8	16	65	n/a	n/a	n/a	f	5	0.02000000000000001	0	f	1	0.6221222737804055
8	17	65	n/a	n/a	n/a	j	5	0.03000000000000001	2	j	1	0.6010764664970338
8	18	105	n/a	n/a	n/a	f	5	0.04000000000000001	1	f	1	0.580599426291883
8	19	85	n/a	n/a	n/a	f	5	0.03000000000000001	1	f	1	0.5920178173109889
8	20	85	n/a	n/a	n/a	f	5	0.02000000000000001	1	f	1	0.5869516567327082
8	21	85	n/a	n/a	n/a	j	5	0.01000000000000001	1	j	1	0.5988564216531813
8	22	85	n/a	n/a	n/a	f	5	1.040834085586084e-17	2	f	1	0.577907832339406
8	23	105	n/a	n/a	n/a	f	5	0.01000000000000001	0	f	1	0.5645696031861007
8	24	65	n/a	n/a	n/a	f	5	0.02000000000000001	1	f	1	0.5618426571600139
8	25	85	n/a	n/a	n/a	j	5	0.01000000000000001	0	j	1	0.5907331733033061
8	26	65	n/a	n/a	n/a	f	5	0.02000000000000001	1	f	1	0.6017051041126251
8	27	85	n/a	n/a	n/a	f	5	0.01000000000000001	2	f	1	0.6226348765194416
8	28	105	n/a	n/a	n/a	f	5	0.02000000000000001	2	f	1	0.5656600962392986
8	29	105	n/a	n/a	n/a	j	5	0.03000000000000001	1	j	1	0.6055003055371344
8	30	85	n/a	n/a	n/a	f	5	0.02000000000000001	2	f	1	0.5927522256970406
8	31	105	n/a	n/a	n/a	f	5	0.03000000000000001	1	f	1	0.5875261258333921
8	32	85	n/a	n/a	n/a	f	5	0.02000000000000001	1	f	1	0.5984464534558356
8	33	85	n/a	n/a	n/a	j	5	0.01000000000000001	2	j	1	0.5710814869962633
8	34	105	n/a	n/a	n/a	f	5	0.02000000000000001	1	f	1	0.538474740460515
8	35	85	n/a	n/a	n/a	f	5	0.01000000000000001	0	f	1	0.5734004601836205
8	36	65	n/a	n/a	n/a	f	5	0.02000000000000001	1	f	1	0.6344144847244024
8	37	85	n/a	n/a	n/a	j	5	0.01000000000000001	2	j	1	0.606133219320327
8	38	105	n/a	n/a	n/a	f	5	0.02000000000000001	2	f	1	0.6093251570127904
8	39	105	n/a	n/a	n/a	f	5	0.03000000000000001	1	f	1	0.5032944297417998
8	40	85	n/a	n/a	n/a	f	5	0.02000000000000001	0	f	1	0.5712636634707451
8	41	65	n/a	n/a	n/a	j	5	0.03000000000000001	1	j	1	0.6062492532655597
8	42	85	n/a	n/a	n/a	f	5	0.02000000000000001	2	f	1	0.54685571603477
8	43	105	n/a	n/a	n/a	f	5	0.03000000000000001	0	f	1	0.544314082711935
8	44	65	n/a	n/a	n/a	f	5	0.04000000000000001	0	f	1	0.6060622301883996
8	45	65	n/a	n/a	n/a	j	5	0.05000000000000002	1	j	1	0.618093578144908
8	46	85	n/a	n/a	n/a	f	5	0.04000000000000001	1	f	1	0.5740065746940672
8	47	85	n/a	n/a	n/a	f	5	0.03000000000000001	1	f	1	0.5460642888210714
8	48	85	n/a	n/a	n/a	f	5	0.02000000000000001	0	f	1	0.6127351936884224
8	49	65	n/a	n/a	n/a	j	5	0.03000000000000001	1	j	1	0.6339740110561252
8	50	85	n/a	n/a	n/a	f	5	0.02000000000000001	2	f	1	0.5409185863099992
8	51	105	n/a	n/a	n/a	f	5	0.03000000000000001	0	f	1	0.6159579223021865
8	52	65	n/a	n/a	n/a	f	5	0.04000000000000001	1	f	1	0.6589262075722218
8	53	85	n/a	n/a	n/a	j	5	0.03000000000000001	2	j	1	0.533764380030334
8	54	105	n/a	n/a	n/a	f	5	0.04000000000000001	0	f	1	0.5629713530652225
8	55	65	n/a	n/a	n/a	f	5	0.05000000000000002	1	f	1	0.5744119817391038
8	56	85	n/a	n/a	n/a	f	5	0.04000000000000001	1	f	1	0.6576897450722754
8	57	85	n/a	n/a	n/a	j	5	0.03000000000000001	2	j	1	0.5576959317550063
8	58	105	n/a	n/a	n/a	f	5	0.04000000000000001	1	f	1	0.5926601393148303
8	59	85	n/a	n/a	n/a	f	5	0.03000000000000001	1	f	1	0.6125427535735071
8	60	85	n/a	n/a	n/a	f	5	0.02000000000000001	2	f	1	0.6315107792615891
8	61	105	n/a	n/a	n/a	j	5	0.03000000000000001	2	f	0	0.6445014765486121
8	62	125	n/a	n/a	n/a	f	5	0.04000000000000001	2	f	1	0.6434868187643588
8	63	105	n/a	n/a	n/a	f	5	0.05000000000000002	2	f	1	0.6234981487505138
8	64	105	n/a	n/a	n/a	f	5	0.06000000000000002	1	f	1	0.6203760588541627
8	65	85	n/a	n/a	n/a	j	5	0.05000000000000002	1	j	1	0.5533824251033366
8	66	85	n/a	n/a	n/a	f	5	0.04000000000000001	1	f	1	0.6050125057809055
8	67	85	n/a	n/a	n/a	f	5	0.03000000000000001	1	f	1	0.577016050927341
8	68	85	n/a	n/a	n/a	f	5	0.02000000000000001	1	f	1	0.5742340814322233
8	69	85	n/a	n/a	n/a	j	5	0.01000000000000001	1	j	1	0.6009139618836343
8	70	85	n/a	n/a	n/a	f	5	1.040834085586084e-17	2	f	1	0.6011984879150987
8	71	105	n/a	n/a	n/a	f	5	0.01000000000000001	2	f	1	0.5801515402272344
9	0	103	f	1	3.230818793643266	f	3	0.1	2	f	1	0.4312517405487597
9	1	103	n/a	n/a	n/a	f	3	0.11	1	f	1	0.3941701231524348
9	2	83	n/a	n/a	n/a	j	3	0.1	1	j	1	0.4163215337321162
9	3	83	n/a	n/a	n/a	f	3	0.09000000000000001	1	f	1	0.3971011978574097
9	4	83	n/a	n/a	n/a	f	3	0.08000000000000002	1	f	1	0.4331750003620982
9	5	83	n/a	n/a	n/a	f	3	0.07000000000000002	1	f	1	0.4280529604293406
9	6	83	n/a	n/a	n/a	f	3	0.06000000000000002	1	f	1	0.4339541685767472
9	7	83	n/a	n/a	n/a	f	3	0.05000000000000002	1	f	1	0.4210008191876113
9	8	83	n/a	n/a	n/a	j	3	0.04000000000000001	1	j	1	0.4011127878911793
9	9	83	n/a	n/a	n/a	f	3	0.03000000000000001	1	f	1	0.4059674073942006
9	10	83	n/a	n/a	n/a	f	3	0.02000000000000001	2	f	1	0.4567618709988892
9	11	103	n/a	n/a	n/a	f	3	0.03000000000000001	2	f	1	0.4769546701572835
9	12	103	n/a	n/a	n/a	f	3	0.04000000000000001	2	f	1	0.4170801751315594
9	13	103	n/a	n/a	n/a	f	3	0.05000000000000002	1	f	1	0.4117839415557683
9	14	83	n/a	n/a	n/a	j	3	0.04000000000000001	1	j	1	0.3999897935427725
9	15	83	n/a	n/a	n/a	f	3	0.03000000000000001	1	f	1	0.4598813941702247
9	16	83	n/a	n/a	n/a	f	3	0.02000000000000001	2	f	1	0.431938252877444
9	17	103	n/a	n/a	n/a	f	3	0.03000000000000001	2	f	1	0.4517647032625973
9	18	103	n/a	n/a	n/a	f	3	0.04000000000000001	2	f	1	0.4398684911429882
9	19	103	n/a	n/a	n/a	f	3	0.05000000000000002	2	f	1	0.3473655818961561
9	20	103	n/a	n/a	n/a	j	3	0.06000000000000002	1	j	1	0.4158428572118282
9	21	83	n/a	n/a	n/a	f	3	0.05000000000000002	1	f	1	0.4128547632135451
9	22	83	n/a	n/a	n/a	f	3	0.04000000000000001	1	f	1	0.432772159576416
9	23	83	n/a	n/a	n/a	f	3	0.03000000000000001	2	f	1	0.4366568811237812
9	24	103	n/a	n/a	n/a	f	3	0.04000000000000001	2	f	1	0.440771390683949
9	25	103	n/a	n/a	n/a	f	3	0.05000000000000002	2	f	1	0.4115934972651303
9	26	103	n/a	n/a	n/a	j	3	0.06000000000000002	1	j	1	0.4006848582066596
9	27	83	n/a	n/a	n/a	f	3	0.05000000000000002	1	f	1	0.4365131924860179
9	28	83	n/a	n/a	n/a	f	3	0.04000000000000001	2	f	1	0.3995031341910362
9	29	103	n/a	n/a	n/a	f	3	0.05000000000000002	1	f	1	0.403340530116111
9	30	83	n/a	n/a	n/a	f	3	0.04000000000000001	1	f	1	0.3860830822959542
9	31	83	n/a	n/a	n/a	f	3	0.03000000000000001	1	f	1	0.4223145428113639
9	32	83	n/a	n/a	n/a	j	3	0.02000000000000001	2	j	1	0.4114021975547075
9	33	103	n/a	n/a	n/a	f	3	0.03000000000000001	1	f	1	0.4340428337454796
9	34	83	n/a	n/a	n/a	f	3	0.02000000000000001	2	f	1	0.4160646619275212
9	35	103	n/a	n/a	n/a	f	3	0.03000000000000001	1	f	1	0.4133280226960778
9	36	83	n/a	n/a	n/a	f	3	0.02000000000000001	2	f	1	0.3928372981026769
9	37	103	n/a	n/a	n/a	f	3	0.03000000000000001	1	f	1	0.4522755956277251
9	38	83	n/a	n/a	n/a	j	3	0.02000000000000001	2	j	1	0.4004160123877227
9	39	103	n/a	n/a	n/a	f	3	0.03000000000000001	1	f	1	0.428095439914614
9	40	83	n/a	n/a	n/a	f	3	0.02000000000000001	2	f	1	0.4582084491848946
9	41	103	n/a	n/a	n/a	f	3	0.03000000000000001	2	f	1	0.4301772131584585
9	42	103	n/a	n/a	n/a	f	3	0.04000000000000001	2	f	1	0.3711246508173645
9	43	103	n/a	n/a	n/a	f	3	0.05000000000000002	1	f	1	0.4381006089970469
9	44	83	n/a	n/a	n/a	j	3	0.04000000000000001	2	j	1	0.3612702977843583
9	45	103	n/a	n/a	n/a	f	3	0.05000000000000002	1	f	1	0.4529250450432301
9	46	83	n/a	n/a	n/a	f	3	0.04000000000000001	2	f	1	0.3932817634195089
9	47	103	n/a	n/a	n/a	f	3	0.05000000000000002	1	f	1	0.4370309272781014
9	48	83	n/a	n/a	n/a	f	3	0.04000000000000001	2	f	1	0.3921639006584883
9	49	103	n/a	n/a	n/a	f	3	0.05000000000000002	1	f	1	0.4449851135723293
9	50	83	n/a	n/a	n/a	j	3	0.04000000000000001	2	j	1	0.3930984465405345
9	51	103	n/a	n/a	n/a	f	3	0.05000000000000002	1	f	1	0.4219242460094392
9	52	83	n/a	n/a	n/a	f	3	0.04000000000000001	1	f	1	0.4330353029072285
9	53	83	n/a	n/a	n/a	f	3	0.03000000000000001	2	f	1	0.3728232542052865
9	54	103	n/a	n/a	n/a	f	3	0.04000000000000001	1	f	1	0.375755469314754
9	55	83	n/a	n/a	n/a	f	3	0.03000000000000001	1	f	1	0.4118381096050143
9	56	83	n/a	n/a	n/a	j	3	0.02000000000000001	2	j	1	0.3920333269052207
9	57	103	n/a	n/a	n/a	f	3	0.03000000000000001	1	f	1	0.4438452986069024
9	58	83	n/a	n/a	n/a	f	3	0.02000000000000001	2	f	1	0.4067802168428898
9	59	103	n/a	n/a	n/a	f	3	0.03000000000000001	1	f	1	1.705741012003273
9	60	83	n/a	n/a	n/a	f	3	0.02000000000000001	2	f	1	0.4634773139841855
9	61	103	n/a	n/a	n/a	f	3	0.03000000000000001	2	f	1	0.1626383038237691
9	62	103	n/a	n/a	n/a	j	3	0.04000000000000001	2	f	0	0.2866685842163861
9	63	123	n/a	n/a	n/a	f	3	0.05000000000000002	0	f	1	0.8765815361402929
9	64	63	n/a	n/a	n/a	f	3	0.06000000000000002	2	f	1	0.3991755587048829
9	65	103	n/a	n/a	n/a	f	3	0.07000000000000002	2	j	0	0.4582001813687384
9	66	123	n/a	n/a	n/a	f	3	0.06000000000000002	2	f	1	0.4051366364583373
9	67	103	n/a	n/a	n/a	f	3	0.07000000000000002	1	f	1	0.4344918602146208
9	68	83	n/a	n/a	n/a	j	3	0.06000000000000002	1	f	0	0.4214116428047419
9	69	123	n/a	n/a	n/a	f	3	0.05000000000000002	1	f	1	0.4823729246854782
9	70	83	n/a	n/a	n/a	f	3	0.04000000000000001	2	f	1	0.4164042118936777
9	71	103	n/a	n/a	n/a	f	3	0.05000000000000002	1	f	1	0.4193230275996029
10	0	82	j	1	1.817064837086946	j	2	0.1	1	j	1	0.4084069761447608
10	1	82	n/a	n/a	n/a	f	2	0.09000000000000001	1	f	1	0.402440766338259
10	2	82	n/a	n/a	n/a	j	2	0.08000000000000002	1	j	1	0.413382476195693
10	3	82	n/a	n/a	n/a	j	2	0.07000000000000002	1	j	1	0.4413350261747837
10	4	82	n/a	n/a	n/a	j	2	0.06000000000000002	1	j	1	0.3813841254450381
10	5	82	n/a	n/a	n/a	f	2	0.05000000000000002	1	f	1	0.4113534460775554
10	6	82	n/a	n/a	n/a	j	2	0.04000000000000001	1	j	1	0.407087835483253
10	7	82	n/a	n/a	n/a	j	2	0.03000000000000001	1	j	1	0.4352513565681875
10	8	82	n/a	n/a	n/a	j	2	0.02000000000000001	2	j	1	0.3749979687854648
10	9	102	n/a	n/a	n/a	f	2	0.03000000000000001	1	f	1	0.4372376226820052
10	10	82	n/a	n/a	n/a	j	2	0.02000000000000001	2	j	1	0.4411394498310983
10	11	102	n/a	n/a	n/a	j	2	0.03000000000000001	2	j	1	0.4441315354779363
10	12	102	n/a	n/a	n/a	j	2	0.04000000000000001	2	j	1	0.4631389044225216
10	13	102	n/a	n/a	n/a	f	2	0.05000000000000002	2	f	1	0.3941159551031888
10	14	102	n/a	n/a	n/a	j	2	0.06000000000000002	1	j	1	0.4321480835787952
10	15	82	n/a	n/a	n/a	j	2	0.05000000000000002	1	j	1	0.4350723163224757
10	16	82	n/a	n/a	n/a	j	2	0.04000000000000001	2	j	1	0.4140387680381536
10	17	102	n/a	n/a	n/a	f	2	0.05000000000000002	1	f	1	0.4168729102239013
10	18	82	n/a	n/a	n/a	j	2	0.04000000000000001	1	j	1	0.3730393568985164
10	19	82	n/a	n/a	n/a	j	2	0.03000000000000001	1	j	1	0.4331117090769112
10	20	82	n/a	n/a	n/a	j	2	0.02000000000000001	2	j	1	0.4769552401266992
10	21	102	n/a	n/a	n/a	f	2	0.03000000000000001	2	f	1	0.4179283366538584
10	22	102	n/a	n/a	n/a	j	2	0.04000000000000001	1	j	1	0.4205660470761359
10	23	82	n/a	n/a	n/a	j	2	0.03000000000000001	2	j	1	0.4408828630112112
10	24	102	n/a	n/a	n/a	j	2	0.04000000000000001	2	j	1	0.404808490537107
10	25	102	n/a	n/a	n/a	f	2	0.05000000000000002	1	f	1	0.3769451761618257
10	26	82	n/a	n/a	n/a	j	2	0.04000000000000001	1	j	1	0.3965073423460126
10	27	82	n/a	n/a	n/a	j	2	0.03000000000000001	1	j	1	0.4247147683054209
10	28	82	n/a	n/a	n/a	j	2	0.02000000000000001	2	j	1	0.4067274741828442
10	29	102	n/a	n/a	n/a	f	2	0.03000000000000001	1	f	1	0.3934439825825393
10	30	82	n/a	n/a	n/a	j	2	0.02000000000000001	1	j	1	0.4303693678230047
10	31	82	n/a	n/a	n/a	j	2	0.01000000000000001	2	j	1	0.4344815965741873
10	32	102	n/a	n/a	n/a	j	2	0.02000000000000001	2	j	1	0.4077666494995356
10	33	102	n/a	n/a	n/a	f	2	0.03000000000000001	1	f	1	0.4186758589930832
10	34	82	n/a	n/a	n/a	j	2	0.02000000000000001	2	j	1	0.413308066315949
10	35	102	n/a	n/a	n/a	j	2	0.03000000000000001	1	j	1	0.4253950077109039
10	36	82	n/a	n/a	n/a	j	2	0.02000000000000001	2	j	1	0.4775864430703223
10	37	102	n/a	n/a	n/a	f	2	0.03000000000000001	2	f	1	0.4255446833558381
10	38	102	n/a	n/a	n/a	j	2	0.04000000000000001	1	j	1	0.3752249055542052
10	39	82	n/a	n/a	n/a	j	2	0.03000000000000001	1	j	1	0.4163503283634782
10	40	82	n/a	n/a	n/a	j	2	0.02000000000000001	2	j	1	0.4624717789702117
10	41	102	n/a	n/a	n/a	f	2	0.03000000000000001	2	f	1	0.3876003646291792
10	42	102	n/a	n/a	n/a	j	2	0.04000000000000001	1	j	1	0.4143959935754538
10	43	82	n/a	n/a	n/a	j	2	0.03000000000000001	1	j	1	0.418477431870997
10	44	82	n/a	n/a	n/a	j	2	0.02000000000000001	2	j	1	0.4312608642503619
10	45	102	n/a	n/a	n/a	f	2	0.03000000000000001	2	f	1	0.4273695847950876
10	46	102	n/a	n/a	n/a	j	2	0.04000000000000001	2	j	1	0.4484287919476628
10	47	102	n/a	n/a	n/a	j	2	0.05000000000000002	2	j	1	0.4132818370126188
10	48	102	n/a	n/a	n/a	j	2	0.06000000000000002	1	j	1	0.451254665851593
10	49	82	n/a	n/a	n/a	f	2	0.05000000000000002	2	f	1	0.3928315960802138
10	50	102	n/a	n/a	n/a	j	2	0.06000000000000002	1	j	1	0.4691242156550288
10	51	82	n/a	n/a	n/a	j	2	0.05000000000000002	2	j	1	0.4421110581606627
10	52	102	n/a	n/a	n/a	j	2	0.06000000000000002	1	j	1	0.4461987684480846
10	53	82	n/a	n/a	n/a	f	2	0.05000000000000002	2	f	1	0.4092542822472751
10	54	102	n/a	n/a	n/a	j	2	0.06000000000000002	1	j	1	0.4460989846847951
10	55	82	n/a	n/a	n/a	j	2	0.05000000000000002	2	j	1	0.4349520057439804
10	56	102	n/a	n/a	n/a	j	2	0.06000000000000002	1	j	1	0.4402530859224498
10	57	82	n/a	n/a	n/a	f	2	0.05000000000000002	2	f	1	0.3960369336418808
10	58	102	n/a	n/a	n/a	j	2	0.06000000000000002	1	j	1	0.4329899731092155
10	59	82	n/a	n/a	n/a	j	2	0.05000000000000002	1	j	1	0.3889334751293063
10	60	82	n/a	n/a	n/a	j	2	0.04000000000000001	1	j	1	0.400104402564466
10	61	82	n/a	n/a	n/a	f	2	0.03000000000000001	1	f	1	0.4439145768992603
10	62	82	n/a	n/a	n/a	j	2	0.02000000000000001	2	j	1	0.4320443086326122
10	63	102	n/a	n/a	n/a	j	2	0.03000000000000001	2	j	1	0.4185726544819772
10	64	102	n/a	n/a	n/a	j	2	0.04000000000000001	1	j	1	0.4058470968157053
10	65	82	n/a	n/a	n/a	f	2	0.03000000000000001	1	f	1	0.4359301710501313
10	66	82	n/a	n/a	n/a	j	2	0.02000000000000001	2	j	1	0.4505145559087396
10	67	102	n/a	n/a	n/a	j	2	0.03000000000000001	2	j	1	0.4079970074817538
10	68	102	n/a	n/a	n/a	j	2	0.04000000000000001	1	j	1	0.3797955685295165
10	69	82	n/a	n/a	n/a	f	2	0.03000000000000001	1	f	1	0.384940701071173
10	70	82	n/a	n/a	n/a	j	2	0.02000000000000001	1	j	1	0.4035646156407893
10	71	82	n/a	n/a	n/a	j	2	0.01000000000000001	2	j	1	0.3768074745312333
11	0	107	f	1	1.753185024484992	f	7	0.1	0	f	1	0.489447018597275
11	1	67	n/a	n/a	n/a	f	7	0.11	1	f	1	0.5724795991554856
11	2	87	n/a	n/a	n/a	j	7	0.1	1	j	1	0.6114593879319727
11	3	87	n/a	n/a	n/a	f	7	0.09000000000000001	1	f	1	0.606387525331229
11	4	87	n/a	n/a	n/a	f	7	0.08000000000000002	1	f	1	0.5874371756799519
11	5	87	n/a	n/a	n/a	f	7	0.07000000000000002	1	j	0	0.5901735294610262
11	6	127	n/a	n/a	n/a	f	7	0.06000000000000002	1	f	1	0.8013451984152198
11	7	87	n/a	n/a	n/a	f	7	0.05000000000000002	2	f	1	0.6442659869790077
11	8	107	n/a	n/a	n/a	j	7	0.06000000000000002	1	j	1	0.5550818839110434
11	9	87	n/a	n/a	n/a	f	7	0.05000000000000002	1	f	1	0.5742263840511441
11	10	87	n/a	n/a	n/a	f	7	0.04000000000000001	1	f	1	0.5942210415378213
11	11	87	n/a	n/a	n/a	f	7	0.03000000000000001	1	f	1	0.5738400788977742
11	12	87	n/a	n/a	n/a	f	7	0.02000000000000001	1	f	1	0.5642545716837049
11	13	87	n/a	n/a	n/a	f	7	0.01000000000000001	0	f	1	0.608876415528357
11	14	67	n/a	n/a	n/a	j	7	0.02000000000000001	2	j	1	0.5809620688669384
11	15	107	n/a	n/a	n/a	f	7	0.03000000000000001	1	f	1	0.5771608799695969
11	16	87	n/a	n/a	n/a	f	7	0.02000000000000001	1	f	1	0.604673526249826
11	17	87	n/a	n/a	n/a	f	7	0.01000000000000001	2	f	1	0.5689857443794608
11	18	107	n/a	n/a	n/a	f	7	0.02000000000000001	1	f	1	0.5979087618179619
11	19	87	n/a	n/a	n/a	f	7	0.01000000000000001	2	f	1	0.6098848013207316
11	20	107	n/a	n/a	n/a	j	7	0.02000000000000001	2	j	1	0.5486278743483126
11	21	107	n/a	n/a	n/a	f	7	0.03000000000000001	0	f	1	0.5690325000323355
11	22	67	n/a	n/a	n/a	f	7	0.04000000000000001	1	f	1	0.6038698400370777
11	23	87	n/a	n/a	n/a	f	7	0.03000000000000001	1	f	1	0.5999463447369635
11	24	87	n/a	n/a	n/a	f	7	0.02000000000000001	1	f	1	0.5956927086226642
11	25	87	n/a	n/a	n/a	f	7	0.01000000000000001	1	f	1	0.6635638689622283
11	26	87	n/a	n/a	n/a	j	7	1.040834085586084e-17	2	j	1	0.5543910954147577
11	27	107	n/a	n/a	n/a	f	7	0.01000000000000001	0	f	1	0.6154749691486359
11	28	67	n/a	n/a	n/a	f	7	0.02000000000000001	2	f	1	0.5664349882863462
11	29	107	n/a	n/a	n/a	f	7	0.03000000000000001	1	f	1	0.6025258959271014
11	30	87	n/a	n/a	n/a	f	7	0.02000000000000001	1	f	1	0.6295555890537798
11	31	87	n/a	n/a	n/a	f	7	0.01000000000000001	2	f	1	0.549149030353874
11	32	107	n/a	n/a	n/a	j	7	0.02000000000000001	0	j	1	0.561493129003793
11	33	67	n/a	n/a	n/a	f	7	0.03000000000000001	1	f	1	0.5884481272660196
11	34	87	n/a	n/a	n/a	f	7	0.02000000000000001	1	f	1	0.6004384211264551
11	35	87	n/a	n/a	n/a	f	7	0.01000000000000001	2	f	1	0.5553239304572344
11	36	107	n/a	n/a	n/a	f	7	0.02000000000000001	0	f	1	0.5827932418324053
11	37	67	n/a	n/a	n/a	f	7	0.03000000000000001	1	f	1	0.6312618902884424
11	38	87	n/a	n/a	n/a	j	7	0.02000000000000001	2	j	1	0.5443266266956925
11	39	107	n/a	n/a	n/a	f	7	0.03000000000000001	0	f	1	0.6189271998591721
11	40	67	n/a	n/a	n/a	f	7	0.04000000000000001	1	f	1	0.5661969324573874
11	41	87	n/a	n/a	n/a	f	7	0.03000000000000001	1	f	1	0.6020936900749803
11	42	87	n/a	n/a	n/a	f	7	0.02000000000000001	1	f	1	0.606055673211813
11	43	87	n/a	n/a	n/a	f	7	0.01000000000000001	2	f	1	0.6100370422936976
11	44	107	n/a	n/a	n/a	j	7	0.02000000000000001	2	j	1	0.5978414788842201
11	45	107	n/a	n/a	n/a	f	7	0.03000000000000001	1	f	1	0.6178007842972875
11	46	87	n/a	n/a	n/a	f	7	0.02000000000000001	2	f	1	0.5920711299404502
11	47	107	n/a	n/a	n/a	f	7	0.03000000000000001	1	f	1	0.5869100322015584
11	48	87	n/a	n/a	n/a	f	7	0.02000000000000001	1	f	1	0.6320467605255544
11	49	87	n/a	n/a	n/a	f	7	0.01000000000000001	2	f	1	0.5978537378832698
11	50	107	n/a	n/a	n/a	j	7	0.02000000000000001	1	j	1	0.5779032707214355
11	51	87	n/a	n/a	n/a	f	7	0.01000000000000001	0	f	1	0.5903847860172391
11	52	67	n/a	n/a	n/a	f	7	0.02000000000000001	1	f	1	0.6465099798515439
11	53	87	n/a	n/a	n/a	f	7	0.01000000000000001	2	f	1	1.347726229112595
11	54	107	n/a	n/a	n/a	f	7	0.02000000000000001	2	f	1	0.5994440051726997
11	55	107	n/a	n/a	n/a	f	7	0.03000000000000001	1	f	1	0.5726093184202909
11	56	87	n/a	n/a	n/a	j	7	0.02000000000000001	1	j	1	0.5367379342205822
11	57	87	n/a	n/a	n/a	f	7	0.01000000000000001	0	f	1	0.6115400702692568
11	58	67	n/a	n/a	n/a	f	7	0.02000000000000001	2	f	1	0.5191765734925866
11	59	107	n/a	n/a	n/a	f	7	0.03000000000000001	0	f	1	0.5471499352715909
11	60	67	n/a	n/a	n/a	f	7	0.04000000000000001	1	f	1	0.5465948530472815
11	61	87	n/a	n/a	n/a	f	7	0.03000000000000001	0	f	1	0.5944069242104888
11	62	67	n/a	n/a	n/a	j	7	0.04000000000000001	1	j	1	0.5820197761058807
11	63	87	n/a	n/a	n/a	f	7	0.03000000000000001	1	f	1	0.609390159137547
11	64	87	n/a	n/a	n/a	f	7	0.02000000000000001	2	f	1	0.5662987120449543
11	65	107	n/a	n/a	n/a	f	7	0.03000000000000001	1	f	1	0.6020090165548027
11	66	87	n/a	n/a	n/a	f	7	0.02000000000000001	1	f	1	0.6352589400485158
11	67	87	n/a	n/a	n/a	f	7	0.01000000000000001	2	f	1	0.5592268989421427
11	68	107	n/a	n/a	n/a	j	7	0.02000000000000001	0	j	1	0.5861853174865246
11	69	67	n/a	n/a	n/a	f	7	0.03000000000000001	1	f	1	0.5747743393294513
11	70	87	n/a	n/a	n/a	f	7	0.02000000000000001	1	f	1	0.6111107151955366
11	71	87	n/a	n/a	n/a	f	7	0.01000000000000001	2	f	1	0.5472137969918549
12	0	108	j	1	2.176587779540569	j	8	0.5200000000000004	1	j	1	0.5540076410397887
12	1	88	n/a	n/a	n/a	j	8	0.5100000000000003	1	j	1	0.5580092524178326
12	2	88	n/a	n/a	n/a	f	8	0.5000000000000003	1	f	1	0.5629288740456104
12	3	88	n/a	n/a	n/a	j	8	0.4900000000000003	1	j	1	0.545011998154223
12	4	88	n/a	n/a	n/a	j	8	0.4800000000000003	1	j	1	0.5648361681960523
12	5	88	n/a	n/a	n/a	j	8	0.4700000000000003	1	j	1	0.5600120536983013
12	6	88	n/a	n/a	n/a	j	8	0.4600000000000003	1	j	1	0.6188413859345019
12	7	88	n/a	n/a	n/a	j	8	0.4500000000000003	1	j	1	0.5974508970975876
12	8	88	n/a	n/a	n/a	f	8	0.4400000000000003	1	f	1	0.5526394643820822
12	9	88	n/a	n/a	n/a	j	8	0.4300000000000003	1	j	1	0.550297113135457
12	10	88	n/a	n/a	n/a	j	8	0.4200000000000003	1	j	1	0.665668164845556
12	11	88	n/a	n/a	n/a	j	8	0.4100000000000003	1	j	1	0.5003513810224831
12	12	88	n/a	n/a	n/a	j	8	0.4000000000000002	1	j	1	0.599552626721561
12	13	88	n/a	n/a	n/a	j	8	0.3900000000000002	1	j	1	0.6265660696662962
12	14	88	n/a	n/a	n/a	f	8	0.3800000000000002	1	f	1	0.5115462564863265
12	15	88	n/a	n/a	n/a	j	8	0.3700000000000002	1	j	1	0.6034085541032255
12	16	88	n/a	n/a	n/a	j	8	0.3600000000000002	1	j	1	0.5664974241517484
12	17	88	n/a	n/a	n/a	j	8	0.3500000000000002	1	j	1	0.5491296439431608
12	18	88	n/a	n/a	n/a	j	8	0.3400000000000002	1	j	1	0.6093724831007421
12	19	88	n/a	n/a	n/a	j	8	0.3300000000000002	1	j	1	0.6121322149410844
12	20	88	n/a	n/a	n/a	f	8	0.3200000000000002	1	f	1	0.4953279849141836
12	21	88	n/a	n/a	n/a	j	8	0.3100000000000002	1	j	1	0.5712841902859509
12	22	88	n/a	n/a	n/a	j	8	0.3000000000000002	1	j	1	0.5921649266965687
12	23	88	n/a	n/a	n/a	j	8	0.2900000000000001	1	j	1	0.5329800797626376
12	24	88	n/a	n/a	n/a	j	8	0.2800000000000001	1	j	1	0.5693170260637999
12	25	88	n/a	n/a	n/a	j	8	0.2700000000000001	1	j	1	0.6301628439687192
12	26	88	n/a	n/a	n/a	f	8	0.2600000000000001	1	f	1	0.5212318329140544
12	27	88	n/a	n/a	n/a	j	8	0.2500000000000001	1	j	1	0.5740618836134672
12	28	88	n/a	n/a	n/a	j	8	0.2400000000000001	1	j	1	0.57797169405967
12	29	88	n/a	n/a	n/a	j	8	0.2300000000000001	1	j	1	0.5429918058216572
12	30	88	n/a	n/a	n/a	j	8	0.2200000000000001	1	j	1	0.5946369967423379
12	31	88	n/a	n/a	n/a	j	8	0.2100000000000001	1	j	1	0.5739746438339353
12	32	88	n/a	n/a	n/a	f	8	0.2000000000000001	1	f	1	0.5226946617476642
12	33	88	n/a	n/a	n/a	j	8	0.1900000000000001	1	j	1	0.5759748797863722
12	34	88	n/a	n/a	n/a	j	8	0.18	1	j	1	0.6204498987644911
12	35	88	n/a	n/a	n/a	j	8	0.17	1	j	1	0.551961790304631
12	36	88	n/a	n/a	n/a	j	8	0.16	1	j	1	0.6038661333732307
12	37	88	n/a	n/a	n/a	j	8	0.15	1	j	1	0.5668127406388521
12	38	88	n/a	n/a	n/a	f	8	0.14	1	f	1	1.298685392830521
12	39	88	n/a	n/a	n/a	j	8	0.13	2	j	1	0.3675660789012909
12	40	108	n/a	n/a	n/a	j	8	0.14	0	j	1	0.6036275080405176
12	41	68	n/a	n/a	n/a	j	8	0.15	1	j	1	0.6036098320037127
12	42	88	n/a	n/a	n/a	j	8	0.14	1	j	1	0.6314309523440897
12	43	88	n/a	n/a	n/a	j	8	0.13	1	j	1	0.6195025243796408
12	44	88	n/a	n/a	n/a	f	8	0.12	1	f	1	0.5511931707151234
12	45	88	n/a	n/a	n/a	j	8	0.11	1	j	1	0.5884860446676612
12	46	88	n/a	n/a	n/a	j	8	0.1	1	j	1	0.5616838582791388
12	47	88	n/a	n/a	n/a	j	8	0.09000000000000002	1	j	1	0.5584283438511193
12	48	88	n/a	n/a	n/a	j	8	0.08000000000000003	1	j	1	0.5703485044650733
12	49	88	n/a	n/a	n/a	j	8	0.07000000000000003	1	j	1	0.5750571545213461
12	50	88	n/a	n/a	n/a	f	8	0.06000000000000003	1	f	1	0.5391575461253524
12	51	88	n/a	n/a	n/a	j	8	0.05000000000000003	1	j	1	0.600360304582864
12	52	88	n/a	n/a	n/a	j	8	0.04000000000000003	1	j	1	0.5722175957635045
12	53	88	n/a	n/a	n/a	j	8	0.03000000000000003	1	j	1	0.559087201487273
12	54	88	n/a	n/a	n/a	j	8	0.02000000000000002	0	j	1	0.5399213191121817
12	55	68	n/a	n/a	n/a	j	8	0.03000000000000003	0	j	1	0.57580496231094
12	56	68	n/a	n/a	n/a	f	8	0.04000000000000003	1	f	1	0.5560708828270435
12	57	88	n/a	n/a	n/a	j	8	0.03000000000000003	1	j	1	0.5921791815198958
12	58	88	n/a	n/a	n/a	j	8	0.02000000000000002	1	j	1	0.5570079940371215
12	59	88	n/a	n/a	n/a	j	8	0.01000000000000002	0	j	1	0.5691337091848254
12	60	68	n/a	n/a	n/a	j	8	0.02000000000000002	1	j	1	0.6040106774307787
12	61	88	n/a	n/a	n/a	j	8	0.01000000000000002	2	j	1	0.6339169922284782
12	62	108	n/a	n/a	n/a	f	8	0.02000000000000002	2	f	1	0.4858128963969648
12	63	108	n/a	n/a	n/a	j	8	0.03000000000000003	0	j	1	0.5458393474109471
12	64	68	n/a	n/a	n/a	j	8	0.04000000000000003	0	j	1	0.6048460095189512
12	65	68	n/a	n/a	n/a	j	8	0.05000000000000003	1	j	1	0.5867261453531682
12	66	88	n/a	n/a	n/a	j	8	0.04000000000000003	1	j	1	0.6238548038527369
12	67	88	n/a	n/a	n/a	j	8	0.03000000000000003	2	j	1	0.5967113575898111
12	68	108	n/a	n/a	n/a	f	8	0.04000000000000003	1	f	1	0.5136841936036944
12	69	88	n/a	n/a	n/a	j	8	0.03000000000000003	0	j	1	0.5643138713203371
12	70	68	n/a	n/a	n/a	j	8	0.04000000000000003	1	j	1	0.6153706237673759
12	71	88	n/a	n/a	n/a	j	8	0.03000000000000003	1	j	1	0.5645804367959499
13	0	89	f	1	1.870278912596405	f	9	0.04000000000000001	0	f	1	0.903358063660562
13	1	69	n/a	n/a	n/a	j	9	0.05000000000000002	0	j	1	0.9564310167916119
13	2	69	n/a	n/a	n/a	f	9	0.06000000000000002	1	f	1	1.048722954001278
13	3	89	n/a	n/a	n/a	f	9	0.05000000000000002	2	f	1	1.011488524731249
13	4	109	n/a	n/a	n/a	f	9	0.06000000000000002	1	f	1	0.9534309483133256
13	5	89	n/a	n/a	n/a	j	9	0.05000000000000002	1	j	1	0.9354222719557583
13	6	89	n/a	n/a	n/a	f	9	0.04000000000000001	0	f	1	1.029376320540905
13	7	69	n/a	n/a	n/a	f	9	0.05000000000000002	1	f	1	0.9931109338067472
13	8	89	n/a	n/a	n/a	f	9	0.04000000000000001	1	f	1	1.072036131750792
13	9	89	n/a	n/a	n/a	j	9	0.03000000000000001	2	j	1	0.9978948491625488
13	10	109	n/a	n/a	n/a	f	9	0.04000000000000001	1	f	1	1.154153268318623
13	11	89	n/a	n/a	n/a	f	9	0.03000000000000001	2	f	1	1.142007596790791
13	12	109	n/a	n/a	n/a	f	9	0.04000000000000001	2	f	1	1.018964034039527
13	13	109	n/a	n/a	n/a	j	9	0.05000000000000002	1	j	1	0.9658902259543538
13	14	89	n/a	n/a	n/a	f	9	0.04000000000000001	1	f	1	0.9615886933170259
13	15	89	n/a	n/a	n/a	f	9	0.03000000000000001	1	f	1	0.9498099405318499
13	16	89	n/a	n/a	n/a	f	9	0.02000000000000001	0	f	1	0.9609078834764659
13	17	69	n/a	n/a	n/a	j	9	0.03000000000000001	1	j	1	0.9497372410260141
13	18	89	n/a	n/a	n/a	f	9	0.02000000000000001	0	f	1	0.9216318796388805
13	19	69	n/a	n/a	n/a	f	9	0.03000000000000001	0	f	1	0.9575386154465377
13	20	69	n/a	n/a	n/a	f	9	0.04000000000000001	1	f	1	0.9455320709384978
13	21	89	n/a	n/a	n/a	j	9	0.03000000000000001	0	j	1	0.974511822219938
13	22	69	n/a	n/a	n/a	f	9	0.04000000000000001	1	f	1	0.8994111907668412
13	23	89	n/a	n/a	n/a	f	9	0.03000000000000001	0	f	1	0.9593823333270848
13	24	69	n/a	n/a	n/a	f	9	0.04000000000000001	1	f	1	0.9245489845052361
13	25	89	n/a	n/a	n/a	j	9	0.03000000000000001	0	j	1	0.9772478914819658
13	26	69	n/a	n/a	n/a	f	9	0.04000000000000001	1	f	1	0.8849120493978262
13	27	89	n/a	n/a	n/a	f	9	0.03000000000000001	0	f	1	0.8981636096723378
13	28	69	n/a	n/a	n/a	f	9	0.04000000000000001	0	f	1	1.0007942779921
13	29	69	n/a	n/a	n/a	j	9	0.05000000000000002	1	j	1	0.9580666138790548
13	30	89	n/a	n/a	n/a	f	9	0.04000000000000001	1	f	1	0.907018699683249
13	31	89	n/a	n/a	n/a	f	9	0.03000000000000001	0	f	1	0.9920409671030939
13	32	69	n/a	n/a	n/a	f	9	0.04000000000000001	1	f	1	1.059893595986068
13	33	89	n/a	n/a	n/a	j	9	0.03000000000000001	2	j	1	0.9690014817751944
13	34	109	n/a	n/a	n/a	f	9	0.04000000000000001	1	f	1	0.9962891871109605
13	35	89	n/a	n/a	n/a	f	9	0.03000000000000001	1	f	1	0.9045814117416739
13	36	89	n/a	n/a	n/a	f	9	0.02000000000000001	0	f	1	1.021663040388376
13	37	69	n/a	n/a	n/a	j	9	0.03000000000000001	2	j	1	0.9923617001622915
13	38	109	n/a	n/a	n/a	f	9	0.04000000000000001	1	f	1	1.020546318497509
13	39	89	n/a	n/a	n/a	f	9	0.03000000000000001	2	f	1	0.9526851368136704
13	40	109	n/a	n/a	n/a	f	9	0.04000000000000001	1	f	1	1.048533080145717
13	41	89	n/a	n/a	n/a	j	9	0.03000000000000001	2	j	1	0.9563748524524271
13	42	109	n/a	n/a	n/a	f	9	0.04000000000000001	1	f	1	1.005356388632208
13	43	89	n/a	n/a	n/a	f	9	0.03000000000000001	1	f	1	0.9637964791618288
13	44	89	n/a	n/a	n/a	f	9	0.02000000000000001	0	f	1	0.9471970330923796
13	45	69	n/a	n/a	n/a	j	9	0.03000000000000001	0	j	1	1.000320733059198
13	46	69	n/a	n/a	n/a	f	9	0.04000000000000001	1	f	1	1.030117285903543
13	47	89	n/a	n/a	n/a	f	9	0.03000000000000001	2	f	1	1.0600620880723
13	48	109	n/a	n/a	n/a	f	9	0.04000000000000001	2	f	1	0.993116635363549
13	49	109	n/a	n/a	n/a	j	9	0.05000000000000002	2	f	0	1.03548935521394
13	50	129	n/a	n/a	n/a	f	9	0.04000000000000001	2	f	1	0.9847071506083012
13	51	109	n/a	n/a	n/a	f	9	0.05000000000000002	1	f	1	0.9417525492608547
13	52	89	n/a	n/a	n/a	f	9	0.04000000000000001	0	f	1	1.04176403908059
13	53	69	n/a	n/a	n/a	j	9	0.05000000000000002	2	j	1	0.9358342359773815
13	54	109	n/a	n/a	n/a	f	9	0.06000000000000002	1	f	1	1.003633837215602
13	55	89	n/a	n/a	n/a	f	9	0.05000000000000002	1	f	1	0.9262327635660768
13	56	89	n/a	n/a	n/a	f	9	0.04000000000000001	0	f	1	0.9865186521783471
13	57	69	n/a	n/a	n/a	j	9	0.05000000000000002	1	j	1	0.9664969108998775
13	58	89	n/a	n/a	n/a	f	9	0.04000000000000001	1	f	1	0.9870529226027429
13	59	89	n/a	n/a	n/a	f	9	0.03000000000000001	1	f	1	0.9924717475660145
13	60	89	n/a	n/a	n/a	f	9	0.02000000000000001	1	f	1	1.027377225458622
13	61	89	n/a	n/a	n/a	j	9	0.01000000000000001	2	j	1	0.9612990352325141
13	62	109	n/a	n/a	n/a	f	9	0.02000000000000001	0	f	1	1.028191460296512
13	63	69	n/a	n/a	n/a	f	9	0.03000000000000001	2	f	1	0.9221427724696696
13	64	109	n/a	n/a	n/a	f	9	0.04000000000000001	0	f	1	0.9831043393351138
13	65	69	n/a	n/a	n/a	j	9	0.05000000000000002	1	j	1	0.9547996954061091
13	66	89	n/a	n/a	n/a	f	9	0.04000000000000001	1	f	1	1.001111875288188
13	67	89	n/a	n/a	n/a	f	9	0.03000000000000001	1	f	1	1.004911923781037
13	68	89	n/a	n/a	n/a	f	9	0.02000000000000001	2	f	1	1.016055481974036
13	69	109	n/a	n/a	n/a	j	9	0.03000000000000001	1	j	1	1.012726697605103
13	70	89	n/a	n/a	n/a	f	9	0.02000000000000001	2	f	1	1.521699675824493
13	71	109	n/a	n/a	n/a	f	9	0.03000000000000001	2	f	1	0.8156231050379574
14	0	110	j	1	1.638511033263057	j	10	0.02000000000000001	0	j	1	1.015901815146208
14	1	70	n/a	n/a	n/a	f	10	0.03000000000000001	1	f	1	0.978897743858397
14	2	90	n/a	n/a	n/a	j	10	0.02000000000000001	1	j	1	0.9667993979528546
14	3	90	n/a	n/a	n/a	j	10	0.01000000000000001	0	j	1	0.8895947556011379
14	4	70	n/a	n/a	n/a	j	10	0.02000000000000001	0	j	1	1.092524576000869
14	5	70	n/a	n/a	n/a	f	10	0.03000000000000001	2	f	1	0.9925330434925854
14	6	110	n/a	n/a	n/a	j	10	0.04000000000000001	1	j	1	0.9756028861738741
14	7	90	n/a	n/a	n/a	j	10	0.03000000000000001	1	j	1	1.013493321835995
14	8	90	n/a	n/a	n/a	j	10	0.02000000000000001	2	j	1	0.9064239892177284
14	9	110	n/a	n/a	n/a	f	10	0.03000000000000001	0	f	1	1.021399326622486
14	10	70	n/a	n/a	n/a	j	10	0.04000000000000001	1	j	1	1.002372001297772
14	11	90	n/a	n/a	n/a	j	10	0.03000000000000001	1	j	1	0.9973064102232456
14	12	90	n/a	n/a	n/a	j	10	0.02000000000000001	1	j	1	1.011310339905322
14	13	90	n/a	n/a	n/a	f	10	0.01000000000000001	2	f	1	0.9443492065183818
14	14	110	n/a	n/a	n/a	j	10	0.02000000000000001	0	j	1	0.996139511000365
14	15	70	n/a	n/a	n/a	j	10	0.03000000000000001	1	j	1	0.9362510470673442
14	16	90	n/a	n/a	n/a	j	10	0.02000000000000001	0	j	1	0.9420213955454528
14	17	70	n/a	n/a	n/a	f	10	0.03000000000000001	0	f	1	0.9699320360086858
14	18	70	n/a	n/a	n/a	j	10	0.04000000000000001	1	j	1	0.9168778993189335
14	19	90	n/a	n/a	n/a	j	10	0.03000000000000001	0	j	1	1.041665395721793
14	20	70	n/a	n/a	n/a	j	10	0.04000000000000001	2	j	1	0.9759803535416722
14	21	110	n/a	n/a	n/a	f	10	0.05000000000000002	1	f	1	1.002780829090625
14	22	90	n/a	n/a	n/a	j	10	0.04000000000000001	1	j	1	0.9736776305362582
14	23	90	n/a	n/a	n/a	j	10	0.03000000000000001	1	j	1	0.921662385109812
14	24	90	n/a	n/a	n/a	j	10	0.02000000000000001	0	j	1	0.9892296330071986
14	25	70	n/a	n/a	n/a	f	10	0.03000000000000001	1	f	1	0.9607342598028481
14	26	90	n/a	n/a	n/a	j	10	0.02000000000000001	0	j	1	1.036298457998782
14	27	70	n/a	n/a	n/a	j	10	0.03000000000000001	2	j	1	0.9984006099402905
14	28	110	n/a	n/a	n/a	j	10	0.04000000000000001	1	j	1	1.009315805975348
14	29	90	n/a	n/a	n/a	f	10	0.03000000000000001	1	f	1	0.9892664100043476
14	30	90	n/a	n/a	n/a	j	10	0.02000000000000001	1	j	1	1.058233195915818
14	31	90	n/a	n/a	n/a	j	10	0.01000000000000001	2	j	1	0.927195533644408
14	32	110	n/a	n/a	n/a	j	10	0.02000000000000001	0	j	1	1.067605450749397
14	33	70	n/a	n/a	n/a	f	10	0.03000000000000001	2	f	1	0.99222570983693
14	34	110	n/a	n/a	n/a	j	10	0.04000000000000001	1	j	1	1.075051880441606
14	35	90	n/a	n/a	n/a	j	10	0.03000000000000001	2	j	1	1.013922106474638
14	36	110	n/a	n/a	n/a	j	10	0.04000000000000001	1	j	1	1.033025552984327
14	37	90	n/a	n/a	n/a	f	10	0.03000000000000001	2	f	1	0.964810851495713
14	38	110	n/a	n/a	n/a	j	10	0.04000000000000001	1	j	1	1.024864386767149
14	39	90	n/a	n/a	n/a	j	10	0.03000000000000001	2	j	1	1.012397126760334
14	40	110	n/a	n/a	n/a	j	10	0.04000000000000001	1	j	1	1.009671891573817
14	41	90	n/a	n/a	n/a	f	10	0.03000000000000001	1	f	1	0.9175786660052836
14	42	90	n/a	n/a	n/a	j	10	0.02000000000000001	0	j	1	0.9875820614397526
14	43	70	n/a	n/a	n/a	j	10	0.03000000000000001	1	j	1	0.8964216713793576
14	44	90	n/a	n/a	n/a	j	10	0.02000000000000001	0	j	1	0.9871532768011093
14	45	70	n/a	n/a	n/a	f	10	0.03000000000000001	1	f	1	0.9513808214105666
14	46	90	n/a	n/a	n/a	j	10	0.02000000000000001	0	j	1	0.979321681894362
14	47	70	n/a	n/a	n/a	j	10	0.03000000000000001	1	j	1	0.9120600572787225
14	48	90	n/a	n/a	n/a	j	10	0.02000000000000001	0	j	1	0.9311652141623199
14	49	70	n/a	n/a	n/a	f	10	0.03000000000000001	0	f	1	0.9671782911755145
14	50	70	n/a	n/a	n/a	j	10	0.04000000000000001	1	j	1	0.9457524507306516
14	51	90	n/a	n/a	n/a	j	10	0.03000000000000001	0	j	1	0.9339015679433942
14	52	70	n/a	n/a	n/a	j	10	0.04000000000000001	0	j	1	0.9537131935358047
14	53	70	n/a	n/a	n/a	f	10	0.05000000000000002	1	f	1	0.9506013677455485
14	54	90	n/a	n/a	n/a	j	10	0.04000000000000001	1	j	1	0.9415763602592051
14	55	90	n/a	n/a	n/a	j	10	0.03000000000000001	0	j	1	0.9618261787109077
14	56	70	n/a	n/a	n/a	j	10	0.04000000000000001	1	j	1	0.9736856133677065
14	57	90	n/a	n/a	n/a	f	10	0.03000000000000001	1	f	1	0.9536778419278562
14	58	90	n/a	n/a	n/a	j	10	0.02000000000000001	0	j	1	0.9421716411598027
14	59	70	n/a	n/a	n/a	j	10	0.03000000000000001	0	j	1	1.059572862926871
14	60	70	n/a	n/a	n/a	j	10	0.04000000000000001	2	j	1	0.944717550650239
14	61	110	n/a	n/a	n/a	f	10	0.05000000000000002	1	f	1	0.8833970478735864
14	62	90	n/a	n/a	n/a	j	10	0.04000000000000001	0	j	1	0.9833612111397088
14	63	70	n/a	n/a	n/a	j	10	0.05000000000000002	1	j	1	1.044373239856213
14	64	90	n/a	n/a	n/a	j	10	0.04000000000000001	2	j	1	1.058326421771199
14	65	110	n/a	n/a	n/a	f	10	0.05000000000000002	2	f	1	0.8871144182048738
14	66	110	n/a	n/a	n/a	j	10	0.06000000000000002	0	j	1	1.076173163950443
14	67	70	n/a	n/a	n/a	j	10	0.07000000000000002	2	j	1	1.049246676266193
14	68	110	n/a	n/a	n/a	j	10	0.08000000000000002	1	j	1	0.9887729086913168
14	69	90	n/a	n/a	n/a	f	10	0.07000000000000002	1	f	1	0.936164662707597
14	70	90	n/a	n/a	n/a	j	10	0.06000000000000002	1	j	1	1.042588822543621
14	71	90	n/a	n/a	n/a	j	10	0.05000000000000002	2	j	1	0.9898750907741487
15	0	112	j	1	1.704745170660317	j	12	0.06000000000000002	1	j	1	0.9520870046690106
15	1	92	n/a	n/a	n/a	j	12	0.05000000000000002	1	j	1	0.9651016495190561
15	2	92	n/a	n/a	n/a	f	12	0.04000000000000001	1	f	1	0.9541014949791133
15	3	92	n/a	n/a	n/a	j	12	0.03000000000000001	0	j	1	0.9579890677705407
15	4	72	n/a	n/a	n/a	j	12	0.04000000000000001	1	j	1	0.9210351728834212
15	5	92	n/a	n/a	n/a	j	12	0.03000000000000001	0	j	1	1.052917005494237
15	6	72	n/a	n/a	n/a	j	12	0.04000000000000001	2	j	1	1.040699204429984
15	7	112	n/a	n/a	n/a	j	12	0.05000000000000002	2	j	1	1.011622235178947
15	8	112	n/a	n/a	n/a	f	12	0.06000000000000002	1	f	1	0.8862665416672826
15	9	92	n/a	n/a	n/a	j	12	0.05000000000000002	0	j	1	0.9933190536685288
15	10	72	n/a	n/a	n/a	j	12	0.06000000000000002	1	j	1	1.053549348842353
15	11	92	n/a	n/a	n/a	j	12	0.05000000000000002	2	j	1	0.9924061759375036
15	12	112	n/a	n/a	n/a	j	12	0.06000000000000002	1	j	1	1.04344924306497
15	13	92	n/a	n/a	n/a	j	12	0.05000000000000002	2	j	1	0.9984256983734667
15	14	112	n/a	n/a	n/a	f	12	0.06000000000000002	1	f	1	0.9213214097544551
15	15	92	n/a	n/a	n/a	j	12	0.05000000000000002	0	j	1	1.005263447761536
15	16	72	n/a	n/a	n/a	j	12	0.06000000000000002	1	j	1	1.016765941865742
15	17	92	n/a	n/a	n/a	j	12	0.05000000000000002	1	j	1	0.9476577485911548
15	18	92	n/a	n/a	n/a	j	12	0.04000000000000001	1	j	1	1.040263577364385
15	19	92	n/a	n/a	n/a	j	12	0.03000000000000001	2	j	1	1.003045113291591
15	20	112	n/a	n/a	n/a	f	12	0.04000000000000001	1	f	1	1.006924133282155
15	21	92	n/a	n/a	n/a	j	12	0.03000000000000001	1	j	1	0.9859096864238381
15	22	92	n/a	n/a	n/a	j	12	0.02000000000000001	1	j	1	1.092918864451349
15	23	92	n/a	n/a	n/a	j	12	0.01000000000000001	2	j	1	1.001739372499287
15	24	112	n/a	n/a	n/a	j	12	0.02000000000000001	1	j	1	0.9658092586323619
15	25	92	n/a	n/a	n/a	j	12	0.01000000000000001	0	j	1	1.467747485730797
15	26	72	n/a	n/a	n/a	f	12	0.02000000000000001	2	f	1	0.8648007875308394
15	27	112	n/a	n/a	n/a	j	12	0.03000000000000001	0	j	1	1.036354337353259
15	28	72	n/a	n/a	n/a	j	12	0.04000000000000001	2	j	1	1.06446597026661
15	29	112	n/a	n/a	n/a	j	12	0.05000000000000002	2	j	1	0.9884322183206677
15	30	112	n/a	n/a	n/a	j	12	0.06000000000000002	1	j	1	0.9673219798132777
15	31	92	n/a	n/a	n/a	j	12	0.05000000000000002	1	j	1	0.9703431446105242
15	32	92	n/a	n/a	n/a	f	12	0.04000000000000001	1	f	1	0.9902730854228139
15	33	92	n/a	n/a	n/a	j	12	0.03000000000000001	1	j	1	1.050218854099512
15	34	92	n/a	n/a	n/a	j	12	0.02000000000000001	2	j	1	0.9728839229792356
15	35	112	n/a	n/a	n/a	j	12	0.03000000000000001	1	j	1	0.9692785954102874
15	36	92	n/a	n/a	n/a	j	12	0.02000000000000001	1	j	1	1.005836491007358
15	37	92	n/a	n/a	n/a	j	12	0.01000000000000001	2	j	1	1.001977712847292
15	38	112	n/a	n/a	n/a	f	12	0.02000000000000001	1	f	1	0.9740094826556742
15	39	92	n/a	n/a	n/a	j	12	0.01000000000000001	0	j	1	0.9638962624594569
15	40	72	n/a	n/a	n/a	j	12	0.02000000000000001	0	j	1	1.022902924567461
15	41	72	n/a	n/a	n/a	j	12	0.03000000000000001	2	j	1	1.010683983098716
15	42	112	n/a	n/a	n/a	j	12	0.04000000000000001	1	j	1	1.008879608474672
15	43	92	n/a	n/a	n/a	j	12	0.03000000000000001	1	j	1	0.9416390811093152
15	44	92	n/a	n/a	n/a	f	12	0.02000000000000001	0	f	1	0.9216452795080841
15	45	72	n/a	n/a	n/a	j	12	0.03000000000000001	0	j	1	0.959565935190767
15	46	72	n/a	n/a	n/a	j	12	0.04000000000000001	1	j	1	1.00555253541097
15	47	92	n/a	n/a	n/a	j	12	0.03000000000000001	1	j	1	0.9854292995296419
15	48	92	n/a	n/a	n/a	j	12	0.02000000000000001	1	j	1	1.005377200897783
15	49	92	n/a	n/a	n/a	j	12	0.01000000000000001	2	j	1	1.010340441949666
15	50	112	n/a	n/a	n/a	f	12	0.02000000000000001	2	f	1	0.9571582968346775
15	51	112	n/a	n/a	n/a	j	12	0.03000000000000001	1	j	1	0.9702533395029604
15	52	92	n/a	n/a	n/a	j	12	0.02000000000000001	1	j	1	1.013919255696237
15	53	92	n/a	n/a	n/a	j	12	0.01000000000000001	2	j	1	0.9941529603675008
15	54	112	n/a	n/a	n/a	j	12	0.02000000000000001	2	f	0	1.004516494926065
15	55	132	n/a	n/a	n/a	j	12	0.01000000000000001	2	j	1	1.040112761314958
15	56	112	n/a	n/a	n/a	f	12	0.02000000000000001	2	f	1	0.9489361201412976
15	57	112	n/a	n/a	n/a	j	12	0.03000000000000001	0	j	1	0.9607416721992195
15	58	72	n/a	n/a	n/a	j	12	0.04000000000000001	1	j	1	0.9888165281154215
15	59	92	n/a	n/a	n/a	j	12	0.03000000000000001	1	j	1	0.9205268463119864
15	60	92	n/a	n/a	n/a	j	12	0.02000000000000001	0	j	1	0.9323289771564305
15	61	72	n/a	n/a	n/a	j	12	0.03000000000000001	0	j	1	0.9607621994800866
15	62	72	n/a	n/a	n/a	f	12	0.04000000000000001	0	j	0	0.9806068958714604
15	63	132	n/a	n/a	n/a	j	12	0.03000000000000001	1	j	1	0.9046874674968421
15	64	92	n/a	n/a	n/a	j	12	0.02000000000000001	0	j	1	1.004464607685804
15	65	72	n/a	n/a	n/a	j	12	0.03000000000000001	1	j	1	0.9605800225399435
15	66	92	n/a	n/a	n/a	j	12	0.02000000000000001	0	j	1	0.9154344568960369
15	67	72	n/a	n/a	n/a	j	12	0.03000000000000001	0	j	1	1.143465579021722
15	68	72	n/a	n/a	n/a	f	12	0.04000000000000001	2	f	1	0.9143126029521227
15	69	112	n/a	n/a	n/a	j	12	0.05000000000000002	0	j	1	0.998193915002048
15	70	72	n/a	n/a	n/a	j	12	0.06000000000000002	1	j	1	1.058095494285226
15	71	92	n/a	n/a	n/a	j	12	0.05000000000000002	2	j	1	1.025232445914298
16	0	101	f	1	1.216824558097869	f	1	0.12	2	f	1	0.4342455370351672
16	1	101	n/a	n/a	n/a	j	1	0.13	1	j	1	0.3979331091977656
16	2	81	n/a	n/a	n/a	f	1	0.12	1	f	1	0.4178376761265099
16	3	81	n/a	n/a	n/a	f	1	0.11	1	f	1	0.4131276002153754
16	4	81	n/a	n/a	n/a	f	1	0.1	1	f	1	0.4331935318186879
16	5	81	n/a	n/a	n/a	j	1	0.09000000000000002	1	j	1	0.413094243966043
16	6	81	n/a	n/a	n/a	f	1	0.08000000000000003	1	f	1	0.4169487454928458
16	7	81	n/a	n/a	n/a	f	1	0.07000000000000003	1	f	1	0.4372273590415716
16	8	81	n/a	n/a	n/a	f	1	0.06000000000000003	1	f	1	0.4500227649696171
16	9	81	n/a	n/a	n/a	j	1	0.05000000000000003	2	j	1	0.3740454623475671
16	10	101	n/a	n/a	n/a	f	1	0.06000000000000003	1	f	1	0.4339855290018022
16	11	81	n/a	n/a	n/a	f	1	0.05000000000000003	1	f	1	0.406978358514607
16	12	81	n/a	n/a	n/a	f	1	0.04000000000000003	1	f	1	0.4289467372000217
16	13	81	n/a	n/a	n/a	j	1	0.03000000000000003	2	j	1	0.4166687810793519
16	14	101	n/a	n/a	n/a	f	1	0.04000000000000003	1	f	1	0.4439416616223752
16	15	81	n/a	n/a	n/a	f	1	0.03000000000000003	2	f	1	0.4159663040190935
16	16	101	n/a	n/a	n/a	f	1	0.04000000000000003	1	f	1	0.4517341977916658
16	17	81	n/a	n/a	n/a	j	1	0.03000000000000003	2	j	1	0.4018608801998198
16	18	101	n/a	n/a	n/a	f	1	0.04000000000000003	1	f	1	0.3896490666083992
16	19	81	n/a	n/a	n/a	f	1	0.03000000000000003	1	f	1	0.4266528529115021
16	20	81	n/a	n/a	n/a	f	1	0.02000000000000002	2	f	1	0.3744830847717822
16	21	101	n/a	n/a	n/a	j	1	0.03000000000000003	2	f	0	0.8916893578134477
16	22	121	n/a	n/a	n/a	f	1	0.02000000000000002	2	f	1	0.479560449719429
16	23	101	n/a	n/a	n/a	f	1	0.03000000000000003	2	f	1	0.3944614916108549
16	24	101	n/a	n/a	n/a	f	1	0.04000000000000003	1	f	1	0.4385778601281345
16	25	81	n/a	n/a	n/a	j	1	0.03000000000000003	2	j	1	0.4176058927550912
16	26	101	n/a	n/a	n/a	f	1	0.04000000000000003	1	f	1	0.3804019684903324
16	27	81	n/a	n/a	n/a	f	1	0.03000000000000003	1	f	1	0.4165781205520034
16	28	81	n/a	n/a	n/a	f	1	0.02000000000000002	2	f	1	0.4523328999057412
16	29	101	n/a	n/a	n/a	j	1	0.03000000000000003	2	j	1	0.4086447465233505
16	30	101	n/a	n/a	n/a	f	1	0.04000000000000003	1	f	1	0.4374716863967478
16	31	81	n/a	n/a	n/a	f	1	0.03000000000000003	2	f	1	0.4184894058853388
16	32	101	n/a	n/a	n/a	f	1	0.04000000000000003	1	f	1	0.4304241063073277
16	33	81	n/a	n/a	n/a	j	1	0.03000000000000003	2	j	1	0.4113232255913317
16	34	101	n/a	n/a	n/a	f	1	0.04000000000000003	1	f	1	0.4240963947959244
16	35	81	n/a	n/a	n/a	f	1	0.03000000000000003	2	f	1	0.420357926748693
16	36	101	n/a	n/a	n/a	f	1	0.04000000000000003	1	f	1	0.4244507690891623
16	37	81	n/a	n/a	n/a	j	1	0.03000000000000003	2	j	1	0.4190433477051556
16	38	101	n/a	n/a	n/a	f	1	0.04000000000000003	1	f	1	0.4550273446366191
16	39	81	n/a	n/a	n/a	f	1	0.03000000000000003	2	f	1	0.4022662872448564
16	40	101	n/a	n/a	n/a	f	1	0.04000000000000003	1	f	1	0.4392033610492945
16	41	81	n/a	n/a	n/a	j	1	0.03000000000000003	2	j	1	0.3421608647331595
16	42	101	n/a	n/a	n/a	f	1	0.04000000000000003	0	f	1	0.4341876623220742
16	43	61	n/a	n/a	n/a	f	1	0.05000000000000003	1	f	1	0.3821547408588231
16	44	81	n/a	n/a	n/a	f	1	0.04000000000000003	1	f	1	0.4117180844768882
16	45	81	n/a	n/a	n/a	j	1	0.03000000000000003	1	j	1	0.3682366251014173
16	46	81	n/a	n/a	n/a	f	1	0.02000000000000002	1	f	1	0.4190564621239901
16	47	81	n/a	n/a	n/a	f	1	0.01000000000000002	2	f	1	0.3905998622067273
16	48	101	n/a	n/a	n/a	f	1	0.02000000000000002	1	f	1	0.4267671764828265
16	49	81	n/a	n/a	n/a	j	1	0.01000000000000002	2	j	1	0.3830636274069548
16	50	101	n/a	n/a	n/a	f	1	0.02000000000000002	1	f	1	0.4276618086732924
16	51	81	n/a	n/a	n/a	f	1	0.01000000000000002	2	f	1	0.3686708272434771
16	52	101	n/a	n/a	n/a	f	1	0.02000000000000002	1	f	1	0.4279551724903286
16	53	81	n/a	n/a	n/a	j	1	0.01000000000000002	2	j	1	0.4250386375933886
16	54	101	n/a	n/a	n/a	f	1	0.02000000000000002	2	f	1	0.4058929970487952
16	55	101	n/a	n/a	n/a	f	1	0.03000000000000003	1	f	1	0.3948466568253934
16	56	81	n/a	n/a	n/a	f	1	0.02000000000000002	1	f	1	0.4089800198562443
16	57	81	n/a	n/a	n/a	j	1	0.01000000000000002	1	f	0	0.8035809234715998
16	58	121	n/a	n/a	n/a	f	1	0.02000000000000002	2	f	1	0.4157824167050421
16	59	101	n/a	n/a	n/a	f	1	0.03000000000000003	1	f	1	0.3903720709495246
16	60	81	n/a	n/a	n/a	f	1	0.02000000000000002	1	f	1	0.3625509501434863
16	61	81	n/a	n/a	n/a	j	1	0.01000000000000002	0	j	1	0.4066869900561869
16	62	61	n/a	n/a	n/a	f	1	0.02000000000000002	2	f	1	0.4034018260426819
16	63	101	n/a	n/a	n/a	f	1	0.03000000000000003	1	f	1	0.3902651597745717
16	64	81	n/a	n/a	n/a	f	1	0.02000000000000002	1	f	1	0.4342267205938697
16	65	81	n/a	n/a	n/a	j	1	0.01000000000000002	2	j	1	0.3985386537387967
16	66	101	n/a	n/a	n/a	f	1	0.02000000000000002	1	f	1	0.4372247932478786
16	67	81	n/a	n/a	n/a	f	1	0.01000000000000002	2	f	1	0.4013120699673891
16	68	101	n/a	n/a	n/a	f	1	0.02000000000000002	1	f	1	0.415517277084291
16	69	81	n/a	n/a	n/a	j	1	0.01000000000000002	2	j	1	0.4344037654809654
16	70	101	n/a	n/a	n/a	f	1	0.02000000000000002	2	f	1	0.422495863866061
16	71	101	n/a	n/a	n/a	f	1	0.03000000000000003	2	f	1	0.3804954802617431
17	0	111	f	1	1.223522039595991	f	11	0.04000000000000001	0	f	1	0.8564668530598283
17	1	71	n/a	n/a	n/a	f	11	0.05000000000000002	0	f	1	0.906730467453599
17	2	71	n/a	n/a	n/a	j	11	0.06000000000000002	0	j	1	0.8617049269378185
17	3	71	n/a	n/a	n/a	f	11	0.07000000000000002	0	f	1	1.026616018265486
17	4	71	n/a	n/a	n/a	f	11	0.08000000000000002	1	f	1	1.150161350145936
17	5	91	n/a	n/a	n/a	f	11	0.07000000000000002	2	f	1	1.129575402941555
17	6	111	n/a	n/a	n/a	f	11	0.08000000000000002	2	f	1	0.9972627907991409
17	7	111	n/a	n/a	n/a	f	11	0.09000000000000001	1	f	1	0.9292140151374042
17	8	91	n/a	n/a	n/a	j	11	0.08000000000000002	1	j	1	0.7963642813265324
17	9	91	n/a	n/a	n/a	f	11	0.07000000000000002	0	f	1	0.8882887293584645
17	10	71	n/a	n/a	n/a	f	11	0.08000000000000002	0	f	1	0.9563309475779533
17	11	71	n/a	n/a	n/a	f	11	0.09000000000000001	1	f	1	0.9924018993042409
17	12	91	n/a	n/a	n/a	f	11	0.08000000000000002	1	f	1	0.9948671264573932
17	13	91	n/a	n/a	n/a	f	11	0.07000000000000002	1	f	1	1.00611674040556
17	14	91	n/a	n/a	n/a	j	11	0.06000000000000002	1	j	1	0.9372237953357399
17	15	91	n/a	n/a	n/a	f	11	0.05000000000000002	1	f	1	0.9241313189268112
17	16	91	n/a	n/a	n/a	f	11	0.04000000000000001	0	f	1	0.9681322234682739
17	17	71	n/a	n/a	n/a	f	11	0.05000000000000002	1	f	1	1.099915696773678
17	18	91	n/a	n/a	n/a	f	11	0.04000000000000001	2	f	1	0.9610555632971227
17	19	111	n/a	n/a	n/a	f	11	0.05000000000000002	1	f	1	0.9076048578135669
17	20	91	n/a	n/a	n/a	j	11	0.04000000000000001	0	j	1	0.8245232403278351
17	21	71	n/a	n/a	n/a	f	11	0.05000000000000002	0	f	1	0.9015702246688306
17	22	71	n/a	n/a	n/a	f	11	0.06000000000000002	0	f	1	0.9457088303752244
17	23	71	n/a	n/a	n/a	f	11	0.07000000000000002	1	f	1	0.9413901921361685
17	24	91	n/a	n/a	n/a	f	11	0.06000000000000002	1	f	1	0.8975121644325554
17	25	91	n/a	n/a	n/a	f	11	0.05000000000000002	0	f	1	0.9665011870674789
17	26	71	n/a	n/a	n/a	j	11	0.06000000000000002	1	j	1	0.9094460094347596
17	27	91	n/a	n/a	n/a	f	11	0.05000000000000002	0	f	1	0.8853593654930592
17	28	71	n/a	n/a	n/a	f	11	0.06000000000000002	0	f	1	0.914303480181843
17	29	71	n/a	n/a	n/a	f	11	0.07000000000000002	0	f	1	0.9671383774839342
17	30	71	n/a	n/a	n/a	f	11	0.08000000000000002	0	j	0	0.9319284171797335
17	31	131	n/a	n/a	n/a	f	11	0.07000000000000002	1	f	1	0.9027525191195309
17	32	91	n/a	n/a	n/a	j	11	0.06000000000000002	0	j	1	0.9228945709764957
17	33	71	n/a	n/a	n/a	f	11	0.07000000000000002	1	f	1	0.9099942496977746
17	34	91	n/a	n/a	n/a	f	11	0.06000000000000002	0	f	1	0.9460118878632784
17	35	71	n/a	n/a	n/a	f	11	0.07000000000000002	1	f	1	0.9267037427052855
17	36	91	n/a	n/a	n/a	f	11	0.06000000000000002	0	f	1	0.9489355501718819
17	37	71	n/a	n/a	n/a	f	11	0.07000000000000002	1	f	1	0.9549285592511296
17	38	91	n/a	n/a	n/a	j	11	0.06000000000000002	1	j	1	0.8879383462481201
17	39	91	n/a	n/a	n/a	f	11	0.05000000000000002	0	f	1	1.307694435119629
17	40	71	n/a	n/a	n/a	f	11	0.06000000000000002	2	f	1	0.8407916896976531
17	41	111	n/a	n/a	n/a	f	11	0.07000000000000002	0	f	1	0.907563803717494
17	42	71	n/a	n/a	n/a	f	11	0.08000000000000002	0	j	0	0.9607003331184387
17	43	131	n/a	n/a	n/a	f	11	0.07000000000000002	1	f	1	0.9714909424073994
17	44	91	n/a	n/a	n/a	j	11	0.06000000000000002	1	j	1	0.8874764903448522
17	45	91	n/a	n/a	n/a	f	11	0.05000000000000002	0	f	1	0.9063564212992787
17	46	71	n/a	n/a	n/a	f	11	0.06000000000000002	0	f	1	0.9604406105354428
17	47	71	n/a	n/a	n/a	f	11	0.07000000000000002	1	f	1	0.9233028292655945
17	48	91	n/a	n/a	n/a	f	11	0.06000000000000002	1	f	1	0.9043727214448154
17	49	91	n/a	n/a	n/a	f	11	0.05000000000000002	0	f	1	0.9551127315498888
17	50	71	n/a	n/a	n/a	j	11	0.06000000000000002	1	j	1	0.8172532855533063
17	51	91	n/a	n/a	n/a	f	11	0.05000000000000002	0	f	1	0.9179797964170575
17	52	71	n/a	n/a	n/a	f	11	0.06000000000000002	0	f	1	0.8251900807954371
17	53	71	n/a	n/a	n/a	f	11	0.07000000000000002	0	f	1	0.9648339445702732
17	54	71	n/a	n/a	n/a	f	11	0.08000000000000002	0	j	0	0.9299621074460447
17	55	131	n/a	n/a	n/a	f	11	0.07000000000000002	1	f	1	0.941902510356158
17	56	91	n/a	n/a	n/a	j	11	0.06000000000000002	1	j	1	0.905848094727844
17	57	91	n/a	n/a	n/a	f	11	0.05000000000000002	0	f	1	0.8923390926793218
17	58	71	n/a	n/a	n/a	f	11	0.06000000000000002	0	f	1	0.9048188966698945
17	59	71	n/a	n/a	n/a	f	11	0.07000000000000002	0	f	1	0.892248431686312
17	60	71	n/a	n/a	n/a	f	11	0.08000000000000002	0	f	1	0.9535184730775654
17	61	71	n/a	n/a	n/a	f	11	0.09000000000000001	1	f	1	0.89353535650298
17	62	91	n/a	n/a	n/a	j	11	0.08000000000000002	0	j	1	0.9855165388435125
17	63	71	n/a	n/a	n/a	f	11	0.09000000000000001	1	f	1	0.9409950487315655
17	64	91	n/a	n/a	n/a	f	11	0.08000000000000002	1	f	1	0.9286201596260071
17	65	91	n/a	n/a	n/a	f	11	0.07000000000000002	1	f	1	0.8842720077373087
17	66	91	n/a	n/a	n/a	f	11	0.06000000000000002	0	f	1	0.9222425557672977
17	67	71	n/a	n/a	n/a	f	11	0.07000000000000002	1	f	1	0.919201719108969
17	68	91	n/a	n/a	n/a	j	11	0.06000000000000002	0	j	1	0.9473039442673326
17	69	71	n/a	n/a	n/a	f	11	0.07000000000000002	1	f	1	0.9597840341739357
17	70	91	n/a	n/a	n/a	f	11	0.06000000000000002	1	f	1	0.8998485282063484
17	71	91	n/a	n/a	n/a	f	11	0.05000000000000002	0	f	1	0.9121749508194625
18	0	64	j	1	0.1097746114246547	j	4	0.08000000000000002	2	j	1	0.4788850569166243
18	1	104	n/a	n/a	n/a	j	4	0.09000000000000001	2	j	1	0.4101463481783867
18	2	104	n/a	n/a	n/a	f	4	0.1	1	f	1	0.4140590098686516
18	3	84	n/a	n/a	n/a	j	4	0.09000000000000001	1	j	1	0.4492715364322066
18	4	84	n/a	n/a	n/a	j	4	0.08000000000000002	1	j	1	0.4288720423355699
18	5	84	n/a	n/a	n/a	j	4	0.07000000000000002	1	j	1	0.4002067516557872
18	6	84	n/a	n/a	n/a	j	4	0.06000000000000002	1	j	1	0.4349537161178887
18	7	84	n/a	n/a	n/a	j	4	0.05000000000000002	1	j	1	0.397833039984107
18	8	84	n/a	n/a	n/a	f	4	0.04000000000000001	1	f	1	0.4119991892948747
18	9	84	n/a	n/a	n/a	j	4	0.03000000000000001	1	j	1	0.4469859194941819
18	10	84	n/a	n/a	n/a	j	4	0.02000000000000001	2	j	1	0.4418265321291983
18	11	104	n/a	n/a	n/a	j	4	0.03000000000000001	2	j	1	0.4049670044332743
18	12	104	n/a	n/a	n/a	j	4	0.04000000000000001	1	j	1	0.4259555074386299
18	13	84	n/a	n/a	n/a	j	4	0.03000000000000001	2	j	1	0.4549361141398549
18	14	104	n/a	n/a	n/a	f	4	0.04000000000000001	2	f	1	0.4508466930128634
18	15	104	n/a	n/a	n/a	j	4	0.05000000000000002	2	j	1	0.3840266829356551
18	16	104	n/a	n/a	n/a	j	4	0.06000000000000002	1	j	1	0.4667328279465437
18	17	84	n/a	n/a	n/a	j	4	0.05000000000000002	2	j	1	0.5137885389849544
18	18	104	n/a	n/a	n/a	j	4	0.06000000000000002	2	j	1	0.3967644996009767
18	19	104	n/a	n/a	n/a	j	4	0.07000000000000002	1	j	1	0.4407887817360461
18	20	84	n/a	n/a	n/a	f	4	0.06000000000000002	1	f	1	0.3957364419475198
18	21	84	n/a	n/a	n/a	j	4	0.05000000000000002	1	j	1	0.3745429548434913
18	22	84	n/a	n/a	n/a	j	4	0.04000000000000001	1	j	1	0.4336331500671804
18	23	84	n/a	n/a	n/a	j	4	0.03000000000000001	2	j	1	0.3976859305985272
18	24	104	n/a	n/a	n/a	j	4	0.04000000000000001	1	j	1	0.4586512036621571
18	25	84	n/a	n/a	n/a	j	4	0.03000000000000001	2	j	1	0.4455230901949108
18	26	104	n/a	n/a	n/a	f	4	0.04000000000000001	2	f	1	0.4087046165950596
18	27	104	n/a	n/a	n/a	j	4	0.05000000000000002	1	j	1	0.4685158198699355
18	28	84	n/a	n/a	n/a	j	4	0.04000000000000001	2	j	1	0.4566503982059658
18	29	104	n/a	n/a	n/a	j	4	0.05000000000000002	2	j	1	0.4051665719598532
18	30	104	n/a	n/a	n/a	j	4	0.06000000000000002	1	j	1	0.4326375937089324
18	31	84	n/a	n/a	n/a	j	4	0.05000000000000002	1	j	1	0.4912029267288744
18	32	84	n/a	n/a	n/a	f	4	0.04000000000000001	2	f	1	0.4085452477447689
18	33	104	n/a	n/a	n/a	j	4	0.05000000000000002	1	j	1	0.4363275947980583
18	34	84	n/a	n/a	n/a	j	4	0.04000000000000001	2	j	1	0.4245362980291247
18	35	104	n/a	n/a	n/a	j	4	0.05000000000000002	1	j	1	0.4291477305814624
18	36	84	n/a	n/a	n/a	j	4	0.04000000000000001	2	j	1	0.4485151758417487
18	37	104	n/a	n/a	n/a	j	4	0.05000000000000002	2	j	1	0.4604698326438665
18	38	104	n/a	n/a	n/a	f	4	0.06000000000000002	2	f	1	0.4232641984708607
18	39	104	n/a	n/a	n/a	j	4	0.07000000000000002	1	j	1	0.4432232184335589
18	40	84	n/a	n/a	n/a	j	4	0.06000000000000002	1	j	1	0.4069572617299855
18	41	84	n/a	n/a	n/a	j	4	0.05000000000000002	1	j	1	0.4323031757958233
18	42	84	n/a	n/a	n/a	j	4	0.04000000000000001	2	j	1	0.4121525711379945
18	43	104	n/a	n/a	n/a	j	4	0.05000000000000002	1	j	1	0.4478623052127659
18	44	84	n/a	n/a	n/a	f	4	0.04000000000000001	2	f	1	0.4431003420613706
18	45	104	n/a	n/a	n/a	j	4	0.05000000000000002	2	j	1	0.4162294478155673
18	46	104	n/a	n/a	n/a	j	4	0.06000000000000002	1	j	1	0.4140698434785008
18	47	84	n/a	n/a	n/a	j	4	0.05000000000000002	1	j	1	0.465142275672406
18	48	84	n/a	n/a	n/a	j	4	0.04000000000000001	2	j	1	0.4001979138702154
18	49	104	n/a	n/a	n/a	j	4	0.05000000000000002	1	j	1	0.4369331393390894
18	50	84	n/a	n/a	n/a	f	4	0.04000000000000001	2	f	1	0.409906012006104
18	51	104	n/a	n/a	n/a	j	4	0.05000000000000002	1	j	1	0.4307442693971097
18	52	84	n/a	n/a	n/a	j	4	0.04000000000000001	2	j	1	0.4019007938914001
18	53	104	n/a	n/a	n/a	j	4	0.05000000000000002	1	j	1	0.4218883239664137
18	54	84	n/a	n/a	n/a	j	4	0.04000000000000001	1	j	1	0.4246272435411811
18	55	84	n/a	n/a	n/a	j	4	0.03000000000000001	2	j	1	0.3887193677946925
18	56	104	n/a	n/a	n/a	f	4	0.04000000000000001	1	f	1	0.4097928288392723
18	57	84	n/a	n/a	n/a	j	4	0.03000000000000001	1	j	1	0.4329825602471828
18	58	84	n/a	n/a	n/a	j	4	0.02000000000000001	2	j	1	0.4045028677210212
18	59	104	n/a	n/a	n/a	j	4	0.03000000000000001	1	j	1	0.8417345029301941
18	60	84	n/a	n/a	n/a	j	4	0.02000000000000001	2	j	1	0.4238495011813939
18	61	104	n/a	n/a	n/a	j	4	0.03000000000000001	2	j	1	0.4104816219769418
18	62	104	n/a	n/a	n/a	f	4	0.04000000000000001	1	f	1	0.4056489546783268
18	63	84	n/a	n/a	n/a	j	4	0.03000000000000001	1	j	1	0.4487945702858269
18	64	84	n/a	n/a	n/a	j	4	0.02000000000000001	2	j	1	0.4276073547080159
18	65	104	n/a	n/a	n/a	j	4	0.03000000000000001	2	j	1	0.3773816586472094
18	66	104	n/a	n/a	n/a	j	4	0.04000000000000001	1	j	1	0.4075605254620314
18	67	84	n/a	n/a	n/a	j	4	0.03000000000000001	1	j	1	0.3896416542120278
18	68	84	n/a	n/a	n/a	f	4	0.02000000000000001	1	f	1	0.4173712581396103
18	69	84	n/a	n/a	n/a	j	4	0.01000000000000001	2	j	1	0.4534062873572111
18	70	104	n/a	n/a	n/a	j	4	0.02000000000000001	2	j	1	0.3953307499177754
18	71	104	n/a	n/a	n/a	j	4	0.03000000000000001	1	j	1	0.4072095714509487
19	0	86	j	1	1.499029104597867	j	6	0.02000000000000001	0	j	1	0.465370352845639
19	1	66	n/a	n/a	n/a	f	6	0.03000000000000001	0	f	1	0.5792825669050217
19	2	66	n/a	n/a	n/a	j	6	0.04000000000000001	1	j	1	0.6333316890522838
19	3	86	n/a	n/a	n/a	j	6	0.03000000000000001	2	j	1	0.577899849973619
19	4	106	n/a	n/a	n/a	j	6	0.04000000000000001	1	j	1	0.7341987523250282
19	5	86	n/a	n/a	n/a	f	6	0.03000000000000001	2	f	1	0.6251043807715178
19	6	106	n/a	n/a	n/a	j	6	0.04000000000000001	1	j	1	0.6531718242913485
19	7	86	n/a	n/a	n/a	j	6	0.03000000000000001	2	j	1	0.6323033468797803
19	8	106	n/a	n/a	n/a	j	6	0.04000000000000001	2	j	1	0.6600386532954872
19	9	106	n/a	n/a	n/a	f	6	0.05000000000000002	2	f	1	0.6109177051112056
19	10	106	n/a	n/a	n/a	j	6	0.06000000000000002	1	j	1	0.6219934104010463
19	11	86	n/a	n/a	n/a	j	6	0.05000000000000002	1	j	1	0.6180485333316028
19	12	86	n/a	n/a	n/a	j	6	0.04000000000000001	1	j	1	0.6859154170379043
19	13	86	n/a	n/a	n/a	f	6	0.03000000000000001	2	f	1	0.5850643194280565
19	14	106	n/a	n/a	n/a	j	6	0.04000000000000001	1	j	1	0.6526027722284198
19	15	86	n/a	n/a	n/a	j	6	0.03000000000000001	2	j	1	0.5999848330393434
19	16	106	n/a	n/a	n/a	j	6	0.04000000000000001	1	j	1	0.6028363658115268
19	17	86	n/a	n/a	n/a	f	6	0.03000000000000001	1	f	1	0.605790819041431
19	18	86	n/a	n/a	n/a	j	6	0.02000000000000001	2	j	1	0.5688531748019159
19	19	106	n/a	n/a	n/a	j	6	0.03000000000000001	1	j	1	0.7087342380546033
19	20	86	n/a	n/a	n/a	j	6	0.02000000000000001	2	j	1	0.6576335811987519
19	21	106	n/a	n/a	n/a	f	6	0.03000000000000001	2	f	1	0.5806570160202682
19	22	106	n/a	n/a	n/a	j	6	0.04000000000000001	1	j	1	0.592798980884254
19	23	86	n/a	n/a	n/a	j	6	0.03000000000000001	1	j	1	0.6395265464670956
19	24	86	n/a	n/a	n/a	j	6	0.02000000000000001	2	j	1	0.5804816815070808
19	25	106	n/a	n/a	n/a	f	6	0.03000000000000001	1	f	1	0.593482926953584
19	26	86	n/a	n/a	n/a	j	6	0.02000000000000001	1	j	1	0.6461567454971373
19	27	86	n/a	n/a	n/a	j	6	0.01000000000000001	2	j	1	0.6513606077060103
19	28	106	n/a	n/a	n/a	j	6	0.02000000000000001	2	j	1	0.623404351528734
19	29	106	n/a	n/a	n/a	f	6	0.03000000000000001	2	f	1	0.5790536343120039
19	30	106	n/a	n/a	n/a	j	6	0.04000000000000001	1	j	1	0.6382433278486133
19	31	86	n/a	n/a	n/a	j	6	0.03000000000000001	2	j	1	0.6013031182810664
19	32	106	n/a	n/a	n/a	j	6	0.04000000000000001	1	j	1	0.6361900642514229
19	33	86	n/a	n/a	n/a	f	6	0.03000000000000001	2	f	1	0.6232686461880803
19	34	106	n/a	n/a	n/a	j	6	0.04000000000000001	1	j	1	0.6441297107376158
19	35	86	n/a	n/a	n/a	j	6	0.03000000000000001	2	j	1	0.5923089007847011
19	36	106	n/a	n/a	n/a	j	6	0.04000000000000001	1	j	1	0.7080782316625118
19	37	86	n/a	n/a	n/a	f	6	0.03000000000000001	2	f	1	0.560200787615031
19	38	106	n/a	n/a	n/a	j	6	0.04000000000000001	1	j	1	0.6188271311111748
19	39	86	n/a	n/a	n/a	j	6	0.03000000000000001	1	j	1	0.6229821243323386
19	40	86	n/a	n/a	n/a	j	6	0.02000000000000001	2	j	1	0.6659669452346861
19	41	106	n/a	n/a	n/a	f	6	0.03000000000000001	2	f	1	0.5489106900058687
19	42	106	n/a	n/a	n/a	j	6	0.04000000000000001	1	j	1	0.6250516381114721
19	43	86	n/a	n/a	n/a	j	6	0.03000000000000001	2	j	1	0.6275342567823827
19	44	106	n/a	n/a	n/a	j	6	0.04000000000000001	2	j	1	0.7039443356916308
19	45	106	n/a	n/a	n/a	f	6	0.05000000000000002	2	f	1	0.6377854631282389
19	46	106	n/a	n/a	n/a	j	6	0.06000000000000002	1	j	1	0.6106981812044978
19	47	86	n/a	n/a	n/a	j	6	0.05000000000000002	1	j	1	0.5928688296116889
19	48	86	n/a	n/a	n/a	j	6	0.04000000000000001	1	j	1	0.7004459188319743
19	49	86	n/a	n/a	n/a	f	6	0.03000000000000001	2	f	1	0.5914938105270267
19	50	106	n/a	n/a	n/a	j	6	0.04000000000000001	1	j	1	0.6286586760543287
19	51	86	n/a	n/a	n/a	j	6	0.03000000000000001	2	j	1	0.6164152165874839
19	52	106	n/a	n/a	n/a	j	6	0.04000000000000001	1	j	1	0.6295333518646657
19	53	86	n/a	n/a	n/a	f	6	0.03000000000000001	2	f	1	0.6086511895991862
19	54	106	n/a	n/a	n/a	j	6	0.04000000000000001	1	j	1	0.6794542800635099
19	55	86	n/a	n/a	n/a	j	6	0.03000000000000001	2	j	1	0.6353550176136196
19	56	106	n/a	n/a	n/a	j	6	0.04000000000000001	2	j	1	0.630400329362601
19	57	106	n/a	n/a	n/a	f	6	0.05000000000000002	1	f	1	0.5963566973805428
19	58	86	n/a	n/a	n/a	j	6	0.04000000000000001	1	j	1	0.607316083740443
19	59	86	n/a	n/a	n/a	j	6	0.03000000000000001	1	j	1	0.6422586236149073
19	60	86	n/a	n/a	n/a	j	6	0.02000000000000001	2	j	1	0.6368363779038191
19	61	106	n/a	n/a	n/a	f	6	0.03000000000000001	2	f	1	0.5930410278961062
19	62	106	n/a	n/a	n/a	j	6	0.04000000000000001	1	j	1	0.5888643674552441
19	63	86	n/a	n/a	n/a	j	6	0.03000000000000001	1	j	1	0.6080869836732745
19	64	86	n/a	n/a	n/a	j	6	0.02000000000000001	2	j	1	0.6430229670368135
19	65	106	n/a	n/a	n/a	f	6	0.03000000000000001	2	f	1	0.5500108762644231
19	66	106	n/a	n/a	n/a	j	6	0.04000000000000001	1	j	1	0.5940072191879153
19	67	86	n/a	n/a	n/a	j	6	0.03000000000000001	1	j	1	0.6047470807097852
19	68	86	n/a	n/a	n/a	j	6	0.02000000000000001	2	j	1	0.5699727479368448
19	69	106	n/a	n/a	n/a	f	6	0.03000000000000001	1	f	1	0.5509901819750667
19	70	86	n/a	n/a	n/a	j	6	0.02000000000000001	0	j	1	0.57888856343925
19	71	66	n/a	n/a	n/a	j	6	0.03000000000000001	1	j	1	0.5665279296226799
20	0	85	f	1	2.144313740544021	f	5	0.02000000000000001	1	f	1	0.4643351682461798
20	1	85	n/a	n/a	n/a	j	5	0.01000000000000001	0	j	1	0.5795080778189003
20	2	65	n/a	n/a	n/a	f	5	0.02000000000000001	1	f	1	0.6326813846826553
20	3	85	n/a	n/a	n/a	f	5	0.01000000000000001	2	f	1	0.572233846411109
20	4	105	n/a	n/a	n/a	f	5	0.02000000000000001	1	f	1	0.7215256527997553
20	5	85	n/a	n/a	n/a	j	5	0.01000000000000001	2	j	1	0.6224917587824166
20	6	105	n/a	n/a	n/a	f	5	0.02000000000000001	2	f	1	0.6103956936858594
20	7	105	n/a	n/a	n/a	f	5	0.03000000000000001	1	f	1	0.631444351747632
20	8	85	n/a	n/a	n/a	f	5	0.02000000000000001	2	f	1	0.5953540140762925
20	9	105	n/a	n/a	n/a	j	5	0.03000000000000001	1	j	1	0.590110523160547
20	10	85	n/a	n/a	n/a	f	5	0.02000000000000001	1	f	1	0.5790134356357157
20	11	85	n/a	n/a	n/a	f	5	0.01000000000000001	1	f	1	0.5502540632151067
