blockLoop_thisRepN	trialLoop_thisRepN	trigger	firstKey	readyKey_corr	readyKey_rt	targetKey	blockType	margin	outcome	trialResp_keys	trialResp_corr	trialResp_rt
0	0	46	j	1	32.68182279495522	j	6	0.1	0	j	1	0.6163681400939822
0	1	66	n/a	n/a	n/a	f	6	0.11	1	f	1	0.6213414003141224
0	2	86	n/a	n/a	n/a	j	6	0.1	1	j	1	0.626657064538449
0	3	86	n/a	n/a	n/a	j	6	0.09000000000000001	1	j	1	0.6173089654184878
0	4	86	n/a	n/a	n/a	j	6	0.08000000000000002	1	j	1	0.5915930685587227
0	5	86	n/a	n/a	n/a	f	6	0.07000000000000002	1	f	1	0.5652106110937893
0	6	86	n/a	n/a	n/a	j	6	0.06000000000000002	1	j	1	0.6115742065012455
0	7	86	n/a	n/a	n/a	j	6	0.05000000000000002	1	j	1	0.6101139313541353
0	8	86	n/a	n/a	n/a	j	6	0.04000000000000001	1	j	1	0.5844790018163621
0	9	86	n/a	n/a	n/a	f	6	0.03000000000000001	1	f	1	0.5754331075586379
0	10	86	n/a	n/a	n/a	j	6	0.02000000000000001	1	j	1	0.6134216454811394
0	11	86	n/a	n/a	n/a	j	6	0.01000000000000001	2	j	1	0.6285871821455657
0	12	106	n/a	n/a	n/a	j	6	0.02000000000000001	2	j	1	0.667356320656836
0	13	106	n/a	n/a	n/a	f	6	0.03000000000000001	2	f	1	0.5703141614794731
0	14	106	n/a	n/a	n/a	j	6	0.04000000000000001	1	j	1	0.5852781333960593
0	15	86	n/a	n/a	n/a	j	6	0.03000000000000001	1	j	1	0.5840436569415033
0	16	86	n/a	n/a	n/a	j	6	0.02000000000000001	1	j	1	0.5832103132270277
0	17	86	n/a	n/a	n/a	f	6	0.01000000000000001	1	f	1	0.5821440443396568
0	18	86	n/a	n/a	n/a	j	6	1.040834085586084e-17	0	j	1	0.5763565422967076
0	19	66	n/a	n/a	n/a	j	6	0.01000000000000001	1	j	1	0.5651450380682945
0	20	86	n/a	n/a	n/a	j	6	1.040834085586084e-17	0	j	1	0.6532576228491962
0	21	66	n/a	n/a	n/a	f	6	0.01000000000000001	2	f	1	0.6521742478944361
0	22	106	n/a	n/a	n/a	j	6	0.02000000000000001	2	j	1	0.6650065374560654
0	23	106	n/a	n/a	n/a	j	6	0.03000000000000001	2	j	1	0.6245824019424617
0	24	106	n/a	n/a	n/a	j	6	0.04000000000000001	2	j	1	0.598554321564734
0	25	106	n/a	n/a	n/a	f	6	0.05000000000000002	1	f	1	0.5488844378851354
0	26	86	n/a	n/a	n/a	j	6	0.04000000000000001	1	j	1	0.5800867723301053
0	27	86	n/a	n/a	n/a	j	6	0.03000000000000001	1	j	1	0.6358004626818001
0	28	86	n/a	n/a	n/a	j	6	0.02000000000000001	2	j	1	0.6267736698500812
0	29	106	n/a	n/a	n/a	f	6	0.03000000000000001	2	f	1	0.5947072012349963
0	30	106	n/a	n/a	n/a	j	6	0.04000000000000001	1	j	1	0.5937247509136796
0	31	86	n/a	n/a	n/a	j	6	0.03000000000000001	1	j	1	0.624683897010982
0	32	86	n/a	n/a	n/a	j	6	0.02000000000000001	2	j	1	0.6322928946465254
0	33	106	n/a	n/a	n/a	f	6	0.03000000000000001	2	f	1	0.6076230243779719
0	34	106	n/a	n/a	n/a	j	6	0.04000000000000001	1	j	1	0.5717353783547878
0	35	86	n/a	n/a	n/a	j	6	0.03000000000000001	1	j	1	0.6275217686779797
0	36	86	n/a	n/a	n/a	j	6	0.02000000000000001	2	j	1	0.6184986820444465
0	37	106	n/a	n/a	n/a	f	6	0.03000000000000001	2	f	1	0.5934470649808645
0	38	106	n/a	n/a	n/a	j	6	0.04000000000000001	1	j	1	0.5363882789388299
0	39	86	n/a	n/a	n/a	j	6	0.03000000000000001	0	j	1	0.6304109580814838
0	40	66	n/a	n/a	n/a	j	6	0.04000000000000001	0	f	0	0.7874464229680598
0	41	126	n/a	n/a	n/a	f	6	0.05000000000000002	0	j	0	0.1143185654655099
0	42	126	n/a	n/a	n/a	j	6	0.06000000000000002	0	j	1	2.610336878336966
0	43	66	n/a	n/a	n/a	j	6	0.07000000000000002	2	j	1	0.6011572722345591
0	44	106	n/a	n/a	n/a	j	6	0.08000000000000002	2	f	0	0.5590844112448394
0	45	126	n/a	n/a	n/a	f	6	0.07000000000000002	2	j	0	0.6221197200939059
0	46	126	n/a	n/a	n/a	j	6	0.06000000000000002	1	j	1	1.748227113857865
0	47	86	n/a	n/a	n/a	j	6	0.05000000000000002	2	j	1	0.7549434681423008
0	48	106	n/a	n/a	n/a	j	6	0.06000000000000002	2	j	1	0.6338863107375801
0	49	106	n/a	n/a	n/a	f	6	0.07000000000000002	2	j	0	0.6168667776510119
0	50	126	n/a	n/a	n/a	j	6	0.06000000000000002	1	j	1	0.638872685842216
0	51	86	n/a	n/a	n/a	j	6	0.05000000000000002	2	j	1	0.6217955625616014
0	52	106	n/a	n/a	n/a	j	6	0.06000000000000002	1	j	1	0.6529280487447977
0	53	86	n/a	n/a	n/a	f	6	0.05000000000000002	2	f	1	0.5718009509146214
0	54	106	n/a	n/a	n/a	j	6	0.06000000000000002	1	j	1	0.6016981047578156
0	55	86	n/a	n/a	n/a	j	6	0.05000000000000002	1	j	1	0.6416352912783623
0	56	86	n/a	n/a	n/a	j	6	0.04000000000000001	2	j	1	0.6166013507172465
0	57	106	n/a	n/a	n/a	f	6	0.05000000000000002	1	f	1	0.598601933568716
0	58	86	n/a	n/a	n/a	j	6	0.04000000000000001	1	j	1	0.5647042756900191
0	59	86	n/a	n/a	n/a	j	6	0.03000000000000001	1	j	1	0.6010848572477698
0	60	86	n/a	n/a	n/a	j	6	0.02000000000000001	1	j	1	0.6464848192408681
0	61	86	n/a	n/a	n/a	f	6	0.01000000000000001	2	f	1	0.6125891576521099
0	62	106	n/a	n/a	n/a	j	6	0.02000000000000001	2	j	1	0.5623955470509827
0	63	106	n/a	n/a	n/a	j	6	0.03000000000000001	1	j	1	0.6393023296259344
0	64	86	n/a	n/a	n/a	j	6	0.02000000000000001	2	j	1	4.029821602161974
0	65	106	n/a	n/a	n/a	f	6	0.03000000000000001	2	j	0	0.685078336391598
0	66	126	n/a	n/a	n/a	j	6	0.04000000000000001	2	f	0	0.8669983502477407
0	67	126	n/a	n/a	n/a	j	6	0.05000000000000002	2	j	1	0.8819452165625989
0	68	106	n/a	n/a	n/a	j	6	0.06000000000000002	2	j	1	0.6249667145311832
0	69	106	n/a	n/a	n/a	f	6	0.07000000000000002	2	j	0	0.6648987699300051
0	70	126	n/a	n/a	n/a	j	6	0.06000000000000002	2	j	1	0.6158013637177646
0	71	106	n/a	n/a	n/a	j	6	0.07000000000000002	1	j	1	0.6138284811750054
1	0	92	j	1	2.191643873229623	j	12	0.1	0	j	1	0.9630147241987288
1	1	72	n/a	n/a	n/a	j	12	0.11	1	j	1	0.9597742934711277
1	2	92	n/a	n/a	n/a	f	12	0.1	1	j	0	0.9818047201260924
1	3	132	n/a	n/a	n/a	j	12	0.09000000000000001	1	j	1	0.9408719683997333
1	4	92	n/a	n/a	n/a	j	12	0.08000000000000002	1	j	1	0.9638389446772635
1	5	92	n/a	n/a	n/a	j	12	0.07000000000000002	1	j	1	0.9395890245214105
1	6	92	n/a	n/a	n/a	j	12	0.06000000000000002	1	j	1	0.9144507376477122
1	7	92	n/a	n/a	n/a	j	12	0.05000000000000002	0	j	1	0.9454765967093408
1	8	72	n/a	n/a	n/a	f	12	0.06000000000000002	1	f	1	0.9434427027590573
1	9	92	n/a	n/a	n/a	j	12	0.05000000000000002	1	j	1	0.9653690690174699
1	10	92	n/a	n/a	n/a	j	12	0.04000000000000001	1	j	1	0.9139369898475707
1	11	92	n/a	n/a	n/a	j	12	0.03000000000000001	0	j	1	0.9452154459431767
1	12	72	n/a	n/a	n/a	j	12	0.04000000000000001	1	j	1	1.017185745760798
1	13	92	n/a	n/a	n/a	j	12	0.03000000000000001	2	j	1	0.9121522721834481
1	14	112	n/a	n/a	n/a	f	12	0.04000000000000001	0	f	1	0.9030388090759516
1	15	72	n/a	n/a	n/a	j	12	0.05000000000000002	0	j	1	0.9581007640808821
1	16	72	n/a	n/a	n/a	j	12	0.06000000000000002	1	j	1	0.8692132821306586
1	17	92	n/a	n/a	n/a	j	12	0.05000000000000002	0	j	1	0.9491107487119734
1	18	72	n/a	n/a	n/a	j	12	0.06000000000000002	1	j	1	0.9396742694079876
1	19	92	n/a	n/a	n/a	j	12	0.05000000000000002	1	j	1	1.017730853985995
1	20	92	n/a	n/a	n/a	f	12	0.04000000000000001	1	f	1	1.031764549668878
1	21	92	n/a	n/a	n/a	j	12	0.03000000000000001	2	j	1	0.9907414219342172
1	22	112	n/a	n/a	n/a	j	12	0.04000000000000001	1	j	1	0.9398407666012645
1	23	92	n/a	n/a	n/a	j	12	0.03000000000000001	0	j	1	0.8895710348151624
1	24	72	n/a	n/a	n/a	j	12	0.04000000000000001	0	j	1	0.9515660186298192
1	25	72	n/a	n/a	n/a	j	12	0.05000000000000002	1	j	1	0.9824270904064178
1	26	92	n/a	n/a	n/a	f	12	0.04000000000000001	1	f	1	1.058337167836726
1	27	92	n/a	n/a	n/a	j	12	0.03000000000000001	2	j	1	0.9943755739368498
1	28	112	n/a	n/a	n/a	j	12	0.04000000000000001	1	j	1	1.932923133485019
1	29	92	n/a	n/a	n/a	j	12	0.03000000000000001	2	j	1	0.9072049558162689
1	30	112	n/a	n/a	n/a	j	12	0.04000000000000001	0	j	1	0.929050353821367
1	31	72	n/a	n/a	n/a	j	12	0.05000000000000002	0	j	1	0.9121400127187371
1	32	72	n/a	n/a	n/a	f	12	0.06000000000000002	0	j	0	0.8800153839401901
1	33	132	n/a	n/a	n/a	j	12	0.07000000000000002	0	j	1	0.9429209721274674
1	34	72	n/a	n/a	n/a	j	12	0.08000000000000002	1	j	1	0.9269514577463269
1	35	92	n/a	n/a	n/a	j	12	0.07000000000000002	1	j	1	0.878903214354068
1	36	92	n/a	n/a	n/a	j	12	0.06000000000000002	0	j	1	0.8998702233657241
1	37	72	n/a	n/a	n/a	j	12	0.07000000000000002	0	j	1	0.9958096202462912
1	38	72	n/a	n/a	n/a	f	12	0.08000000000000002	1	f	1	1.018683083821088
1	39	92	n/a	n/a	n/a	j	12	0.07000000000000002	1	j	1	0.9845864274539053
1	40	92	n/a	n/a	n/a	j	12	0.06000000000000002	1	j	1	0.9436137620359659
1	41	92	n/a	n/a	n/a	j	12	0.05000000000000002	1	j	1	0.9905726434662938
1	42	92	n/a	n/a	n/a	j	12	0.04000000000000001	1	j	1	1.038086041808128
1	43	92	n/a	n/a	n/a	j	12	0.03000000000000001	2	j	1	0.931588301435113
1	44	112	n/a	n/a	n/a	f	12	0.04000000000000001	0	f	1	0.9629417387768626
1	45	72	n/a	n/a	n/a	j	12	0.05000000000000002	1	j	1	0.9843332599848509
1	46	92	n/a	n/a	n/a	j	12	0.04000000000000001	1	j	1	0.9823110550642014
1	47	92	n/a	n/a	n/a	j	12	0.03000000000000001	1	j	1	0.9004250247962773
1	48	92	n/a	n/a	n/a	j	12	0.02000000000000001	0	j	1	0.9962016306817532
1	49	72	n/a	n/a	n/a	j	12	0.03000000000000001	1	j	1	0.9951233877800405
1	50	92	n/a	n/a	n/a	f	12	0.02000000000000001	1	f	1	0.9387211841531098
1	51	92	n/a	n/a	n/a	j	12	0.01000000000000001	0	j	1	0.9919559420086443
1	52	72	n/a	n/a	n/a	j	12	0.02000000000000001	1	j	1	1.08692913968116
1	53	92	n/a	n/a	n/a	j	12	0.01000000000000001	2	j	1	0.9819042193703353
1	54	112	n/a	n/a	n/a	j	12	0.02000000000000001	1	j	1	0.9090230297297239
1	55	92	n/a	n/a	n/a	j	12	0.01000000000000001	0	j	1	0.9867431987076998
1	56	72	n/a	n/a	n/a	f	12	0.02000000000000001	1	f	1	1.025297942571342
1	57	92	n/a	n/a	n/a	j	12	0.01000000000000001	2	j	1	0.9255838394165039
1	58	112	n/a	n/a	n/a	j	12	0.02000000000000001	0	j	1	0.9657585131935775
1	59	72	n/a	n/a	n/a	j	12	0.03000000000000001	1	j	1	0.8505501546896994
1	60	92	n/a	n/a	n/a	j	12	0.02000000000000001	0	j	1	0.8714866582304239
1	61	72	n/a	n/a	n/a	j	12	0.03000000000000001	0	j	1	1.046450835652649
1	62	72	n/a	n/a	n/a	f	12	0.04000000000000001	2	f	1	1.989346149377525
1	63	112	n/a	n/a	n/a	j	12	0.05000000000000002	2	j	1	1.012513264082372
1	64	112	n/a	n/a	n/a	j	12	0.06000000000000002	1	j	1	0.9403796033002436
1	65	92	n/a	n/a	n/a	j	12	0.05000000000000002	1	j	1	0.9381335959769785
1	66	92	n/a	n/a	n/a	j	12	0.04000000000000001	0	j	1	0.9530693432316184
1	67	72	n/a	n/a	n/a	j	12	0.05000000000000002	1	j	1	0.9340170570649207
1	68	92	n/a	n/a	n/a	f	12	0.04000000000000001	0	f	1	0.9949896768666804
1	69	72	n/a	n/a	n/a	j	12	0.05000000000000002	1	j	1	0.9775367933325469
1	70	92	n/a	n/a	n/a	j	12	0.04000000000000001	1	j	1	0.9748468878678977
1	71	92	n/a	n/a	n/a	j	12	0.03000000000000001	1	j	1	0.9728249683976173
2	0	81	f	1	0.1414599558338523	f	1	0.1	2	f	1	0.6387689099647105
2	1	101	n/a	n/a	n/a	j	1	0.11	2	j	1	0.4844413120299578
2	2	101	n/a	n/a	n/a	f	1	0.12	1	f	1	0.5156596130691469
2	3	81	n/a	n/a	n/a	f	1	0.11	2	f	1	0.5866659935563803
2	4	101	n/a	n/a	n/a	f	1	0.12	2	f	1	0.6646082545630634
2	5	101	n/a	n/a	n/a	j	1	0.13	2	j	1	0.5202194806188345
2	6	101	n/a	n/a	n/a	f	1	0.14	1	f	1	0.5745609905570745
2	7	81	n/a	n/a	n/a	f	1	0.13	2	f	1	0.5175657821819186
2	8	101	n/a	n/a	n/a	f	1	0.14	1	f	1	0.554500880651176
2	9	81	n/a	n/a	n/a	j	1	0.13	2	j	1	0.5544221932068467
2	10	101	n/a	n/a	n/a	f	1	0.14	2	f	1	0.5450527118518949
2	11	101	n/a	n/a	n/a	f	1	0.15	2	f	1	0.6064184824936092
2	12	101	n/a	n/a	n/a	f	1	0.16	2	f	1	0.6125213042832911
2	13	101	n/a	n/a	n/a	j	1	0.17	2	j	1	0.5689687812700868
2	14	101	n/a	n/a	n/a	f	1	0.18	2	f	1	0.5921894949860871
2	15	101	n/a	n/a	n/a	f	1	0.1900000000000001	2	f	1	0.6402693842537701
2	16	101	n/a	n/a	n/a	f	1	0.2000000000000001	2	f	1	0.5912364101968706
2	17	101	n/a	n/a	n/a	j	1	0.2100000000000001	1	j	1	0.5551788453012705
2	18	81	n/a	n/a	n/a	f	1	0.2000000000000001	1	f	1	0.5700552919879556
2	19	81	n/a	n/a	n/a	f	1	0.1900000000000001	1	f	1	0.6251409100368619
2	20	81	n/a	n/a	n/a	f	1	0.18	2	f	1	0.6080509573221207
2	21	101	n/a	n/a	n/a	j	1	0.1900000000000001	2	j	1	0.5760654560290277
2	22	101	n/a	n/a	n/a	f	1	0.2000000000000001	1	f	1	0.587188009172678
2	23	81	n/a	n/a	n/a	f	1	0.1900000000000001	2	f	1	0.6859093992970884
2	24	101	n/a	n/a	n/a	f	1	0.2000000000000001	2	f	1	0.605113300960511
2	25	101	n/a	n/a	n/a	j	1	0.2100000000000001	2	j	1	0.5957275684922934
2	26	101	n/a	n/a	n/a	f	1	0.2200000000000001	1	f	1	0.616514680441469
2	27	81	n/a	n/a	n/a	f	1	0.2100000000000001	2	f	1	0.5947770499624312
2	28	101	n/a	n/a	n/a	f	1	0.2200000000000001	1	f	1	0.5698009841144085
2	29	81	n/a	n/a	n/a	j	1	0.2100000000000001	1	j	1	0.5537744495086372
2	30	81	n/a	n/a	n/a	f	1	0.2000000000000001	1	f	1	0.5525898644700646
2	31	81	n/a	n/a	n/a	f	1	0.1900000000000001	1	f	1	0.6226725257001817
2	32	81	n/a	n/a	n/a	f	1	0.18	2	f	1	0.5648211659863591
2	33	101	n/a	n/a	n/a	j	1	0.1900000000000001	1	j	1	0.6368322349153459
2	34	81	n/a	n/a	n/a	f	1	0.18	2	f	1	0.5633397940546274
2	35	101	n/a	n/a	n/a	f	1	0.1900000000000001	1	f	1	0.6175666945055127
2	36	81	n/a	n/a	n/a	f	1	0.18	2	f	1	0.5445181517861784
2	37	101	n/a	n/a	n/a	j	1	0.1900000000000001	1	j	1	0.559492957778275
2	38	81	n/a	n/a	n/a	f	1	0.18	1	f	1	0.5430900929495692
2	39	81	n/a	n/a	n/a	f	1	0.17	1	f	1	0.5823396220803261
2	40	81	n/a	n/a	n/a	f	1	0.16	2	f	1	0.5893390784040093
2	41	101	n/a	n/a	n/a	j	1	0.17	2	j	1	0.5379791297018528
2	42	101	n/a	n/a	n/a	f	1	0.18	1	f	1	0.5768839744850993
2	43	81	n/a	n/a	n/a	f	1	0.17	2	f	1	1.262907698284835
2	44	101	n/a	n/a	n/a	f	1	0.18	2	f	1	0.5802658144384623
2	45	101	n/a	n/a	n/a	j	1	0.1900000000000001	2	j	1	0.67623600224033
2	46	101	n/a	n/a	n/a	f	1	0.2000000000000001	2	f	1	0.6111117764376104
2	47	101	n/a	n/a	n/a	f	1	0.2100000000000001	2	f	1	0.6271374556235969
2	48	101	n/a	n/a	n/a	f	1	0.2200000000000001	2	f	1	0.6340636420063674
2	49	101	n/a	n/a	n/a	j	1	0.2300000000000001	2	j	1	0.5770074222236872
2	50	101	n/a	n/a	n/a	f	1	0.2400000000000001	1	f	1	0.5820374172180891
2	51	81	n/a	n/a	n/a	f	1	0.2300000000000001	1	f	1	0.6050043934956193
2	52	81	n/a	n/a	n/a	f	1	0.2200000000000001	2	f	1	0.6040430408902466
2	53	101	n/a	n/a	n/a	j	1	0.2300000000000001	1	j	1	0.5624611196108162
2	54	81	n/a	n/a	n/a	f	1	0.2200000000000001	1	f	1	0.5667196377180517
2	55	81	n/a	n/a	n/a	f	1	0.2100000000000001	1	f	1	0.6369955963455141
2	56	81	n/a	n/a	n/a	f	1	0.2000000000000001	2	f	1	0.6266542137600482
2	57	101	n/a	n/a	n/a	j	1	0.2100000000000001	2	j	1	0.5693456814624369
2	58	101	n/a	n/a	n/a	f	1	0.2200000000000001	1	f	1	0.5816359985619783
2	59	81	n/a	n/a	n/a	f	1	0.2100000000000001	1	f	1	0.5887996722012758
2	60	81	n/a	n/a	n/a	f	1	0.2000000000000001	2	f	1	0.6036216649226844
2	61	101	n/a	n/a	n/a	j	1	0.2100000000000001	2	j	1	0.577596150804311
2	62	101	n/a	n/a	n/a	f	1	0.2200000000000001	1	f	1	0.5455718762241304
2	63	81	n/a	n/a	n/a	f	1	0.2100000000000001	1	f	1	0.5995518821291625
2	64	81	n/a	n/a	n/a	f	1	0.2000000000000001	2	f	1	0.5665260558016598
2	65	101	n/a	n/a	n/a	j	1	0.2100000000000001	1	j	1	0.5174979288130999
2	66	81	n/a	n/a	n/a	f	1	0.2000000000000001	1	f	1	0.5322118694894016
2	67	81	n/a	n/a	n/a	f	1	0.1900000000000001	1	f	1	0.6024581776000559
2	68	81	n/a	n/a	n/a	f	1	0.18	2	f	1	0.5373869794420898
2	69	101	n/a	n/a	n/a	j	1	0.1900000000000001	1	j	1	1.455708786845207
2	70	81	n/a	n/a	n/a	f	1	0.18	2	f	1	1.213454203680158
2	71	101	n/a	n/a	n/a	f	1	0.1900000000000001	2	f	1	0.5093828812241554
3	0	102	j	1	0.1830005375668406	j	2	0.1	2	j	1	0.5124585251323879
3	1	102	n/a	n/a	n/a	f	2	0.11	2	f	1	0.4221988632343709
3	2	102	n/a	n/a	n/a	j	2	0.12	1	j	1	0.4460955457761884
3	3	82	n/a	n/a	n/a	j	2	0.11	1	j	1	0.4541857899166644
3	4	82	n/a	n/a	n/a	j	2	0.1	1	j	1	0.452157027553767
3	5	82	n/a	n/a	n/a	f	2	0.09000000000000001	1	f	1	0.4750567204318941
3	6	82	n/a	n/a	n/a	j	2	0.08000000000000002	2	j	1	0.4410872175358236
3	7	102	n/a	n/a	n/a	j	2	0.09000000000000001	1	j	1	0.4950786274857819
3	8	82	n/a	n/a	n/a	j	2	0.08000000000000002	2	j	1	0.4777232483029366
3	9	102	n/a	n/a	n/a	f	2	0.09000000000000001	1	f	1	0.4759693210944533
3	10	82	n/a	n/a	n/a	j	2	0.08000000000000002	2	j	1	0.4829382724128664
3	11	102	n/a	n/a	n/a	j	2	0.09000000000000001	2	j	1	0.4509732984006405
3	12	102	n/a	n/a	n/a	j	2	0.1	1	j	1	0.4648866821080446
3	13	82	n/a	n/a	n/a	f	2	0.09000000000000001	1	f	1	0.4748765383847058
3	14	82	n/a	n/a	n/a	j	2	0.08000000000000002	2	j	1	0.4158568442799151
3	15	102	n/a	n/a	n/a	j	2	0.09000000000000001	1	j	1	0.5118646644987166
3	16	82	n/a	n/a	n/a	j	2	0.08000000000000002	2	j	1	0.4547234857454896
3	17	102	n/a	n/a	n/a	f	2	0.09000000000000001	1	f	1	0.478754164185375
3	18	82	n/a	n/a	n/a	j	2	0.08000000000000002	2	j	1	0.4307672176510096
3	19	102	n/a	n/a	n/a	j	2	0.09000000000000001	1	j	1	0.4627016861923039
3	20	82	n/a	n/a	n/a	j	2	0.08000000000000002	2	j	1	0.4456567787565291
3	21	102	n/a	n/a	n/a	f	2	0.09000000000000001	1	f	1	0.4688276001252234
3	22	82	n/a	n/a	n/a	j	2	0.08000000000000002	2	j	1	0.4196492261253297
3	23	102	n/a	n/a	n/a	j	2	0.09000000000000001	1	j	1	0.4995911684818566
3	24	82	n/a	n/a	n/a	j	2	0.08000000000000002	2	j	1	0.4915813226252794
3	25	102	n/a	n/a	n/a	f	2	0.09000000000000001	2	f	1	0.4638531995005906
3	26	102	n/a	n/a	n/a	j	2	0.1	1	j	1	0.4526861705817282
3	27	82	n/a	n/a	n/a	j	2	0.09000000000000001	1	j	1	0.4914784017018974
3	28	82	n/a	n/a	n/a	j	2	0.08000000000000002	2	j	1	0.4674049583263695
3	29	102	n/a	n/a	n/a	f	2	0.09000000000000001	1	f	1	0.507424823474139
3	30	82	n/a	n/a	n/a	j	2	0.08000000000000002	2	j	1	0.4573888732120395
3	31	102	n/a	n/a	n/a	j	2	0.09000000000000001	1	j	1	0.4551676693372428
3	32	82	n/a	n/a	n/a	j	2	0.08000000000000002	1	j	1	0.4313764735125005
3	33	82	n/a	n/a	n/a	f	2	0.07000000000000002	1	f	1	0.4703180957585573
3	34	82	n/a	n/a	n/a	j	2	0.06000000000000002	2	j	1	0.4364902875386178
3	35	102	n/a	n/a	n/a	j	2	0.07000000000000002	1	j	1	1.052481526974589
3	36	82	n/a	n/a	n/a	j	2	0.06000000000000002	2	j	1	0.4427750017493963
3	37	102	n/a	n/a	n/a	f	2	0.07000000000000002	1	f	1	0.4501564903184772
3	38	82	n/a	n/a	n/a	j	2	0.06000000000000002	2	j	1	0.4501898470334709
3	39	102	n/a	n/a	n/a	j	2	0.07000000000000002	1	j	1	0.4727243287488818
3	40	82	n/a	n/a	n/a	j	2	0.06000000000000002	2	j	1	0.4481245926581323
3	41	102	n/a	n/a	n/a	f	2	0.07000000000000002	1	f	1	0.471712798345834
3	42	82	n/a	n/a	n/a	j	2	0.06000000000000002	2	j	1	0.438085129018873
3	43	102	n/a	n/a	n/a	j	2	0.07000000000000002	1	j	1	0.436015313025564
3	44	82	n/a	n/a	n/a	j	2	0.06000000000000002	1	j	1	0.4489681995473802
3	45	82	n/a	n/a	n/a	f	2	0.05000000000000002	2	f	1	0.4809326035901904
3	46	102	n/a	n/a	n/a	j	2	0.06000000000000002	2	j	1	0.3999429233372211
3	47	102	n/a	n/a	n/a	j	2	0.07000000000000002	1	j	1	0.4147740392945707
3	48	82	n/a	n/a	n/a	j	2	0.06000000000000002	1	j	1	0.4709276366047561
3	49	82	n/a	n/a	n/a	f	2	0.05000000000000002	2	f	1	0.460873348172754
3	50	102	n/a	n/a	n/a	j	2	0.06000000000000002	2	j	1	0.4999526734463871
3	51	102	n/a	n/a	n/a	j	2	0.07000000000000002	2	j	1	0.4758475837297738
3	52	102	n/a	n/a	n/a	j	2	0.08000000000000002	2	j	1	0.4357946468517184
3	53	102	n/a	n/a	n/a	f	2	0.09000000000000001	1	f	1	0.4837995553389192
3	54	82	n/a	n/a	n/a	j	2	0.08000000000000002	2	j	1	0.4426877615042031
3	55	102	n/a	n/a	n/a	j	2	0.09000000000000001	1	j	1	0.4727220474742353
3	56	82	n/a	n/a	n/a	j	2	0.08000000000000002	2	j	1	0.4476182577200234
3	57	102	n/a	n/a	n/a	f	2	0.09000000000000001	1	f	1	0.4786121854558587
3	58	82	n/a	n/a	n/a	j	2	0.08000000000000002	2	j	1	0.4062578580342233
3	59	102	n/a	n/a	n/a	j	2	0.09000000000000001	1	j	1	0.4377709506079555
3	60	82	n/a	n/a	n/a	j	2	0.08000000000000002	1	j	1	0.4537199386395514
3	61	82	n/a	n/a	n/a	f	2	0.07000000000000002	1	f	1	0.4265109798870981
3	62	82	n/a	n/a	n/a	j	2	0.06000000000000002	1	j	1	0.4405013401992619
3	63	82	n/a	n/a	n/a	j	2	0.05000000000000002	2	j	1	0.4324723924510181
3	64	102	n/a	n/a	n/a	j	2	0.06000000000000002	1	j	1	0.4314488884992898
3	65	82	n/a	n/a	n/a	f	2	0.05000000000000002	2	f	1	0.4365860810503364
3	66	102	n/a	n/a	n/a	j	2	0.06000000000000002	1	j	1	0.3965727724134922
3	67	82	n/a	n/a	n/a	j	2	0.05000000000000002	1	j	1	0.3883596509695053
3	68	82	n/a	n/a	n/a	j	2	0.04000000000000001	1	j	1	0.4125542612746358
3	69	82	n/a	n/a	n/a	f	2	0.03000000000000001	1	f	1	0.449325998313725
3	70	82	n/a	n/a	n/a	j	2	0.02000000000000001	2	j	1	0.4083182658068836
3	71	102	n/a	n/a	n/a	j	2	0.03000000000000001	1	j	1	0.4472137023694813
4	0	88	j	1	0.01481058867648244	j	8	0.1	0	j	1	0.6911535034887493
4	1	68	n/a	n/a	n/a	j	8	0.11	1	j	1	0.576627956237644
4	2	88	n/a	n/a	n/a	f	8	0.1	1	f	1	0.5020658243447542
4	3	88	n/a	n/a	n/a	j	8	0.09000000000000001	1	j	1	0.5739962104707956
4	4	88	n/a	n/a	n/a	j	8	0.08000000000000002	1	j	1	0.589024044573307
4	5	88	n/a	n/a	n/a	j	8	0.07000000000000002	1	j	1	0.5731531735509634
4	6	88	n/a	n/a	n/a	j	8	0.06000000000000002	1	j	1	0.603740266058594
4	7	88	n/a	n/a	n/a	j	8	0.05000000000000002	1	j	1	0.5628787889145315
4	8	88	n/a	n/a	n/a	f	8	0.04000000000000001	1	f	1	0.5534864994697273
4	9	88	n/a	n/a	n/a	j	8	0.03000000000000001	1	j	1	0.5988143314607441
4	10	88	n/a	n/a	n/a	j	8	0.02000000000000001	1	j	1	0.5417136368341744
4	11	88	n/a	n/a	n/a	j	8	0.01000000000000001	0	j	1	0.596920991782099
4	12	68	n/a	n/a	n/a	j	8	0.02000000000000001	1	j	1	0.5597247430123389
4	13	88	n/a	n/a	n/a	j	8	0.01000000000000001	0	j	1	0.5596791272982955
4	14	68	n/a	n/a	n/a	f	8	0.02000000000000001	0	f	1	0.5516744130291045
4	15	68	n/a	n/a	n/a	j	8	0.03000000000000001	0	j	1	0.5185870053246617
4	16	68	n/a	n/a	n/a	j	8	0.04000000000000001	0	j	1	0.5985799808986485
4	17	68	n/a	n/a	n/a	j	8	0.05000000000000002	1	j	1	0.5897136982530355
4	18	88	n/a	n/a	n/a	j	8	0.04000000000000001	1	j	1	0.6036892333067954
4	19	88	n/a	n/a	n/a	j	8	0.03000000000000001	1	j	1	0.5694782524369657
4	20	88	n/a	n/a	n/a	f	8	0.02000000000000001	1	f	1	0.6004667636007071
4	21	88	n/a	n/a	n/a	j	8	0.01000000000000001	2	j	1	0.5914861564524472
4	22	108	n/a	n/a	n/a	j	8	0.02000000000000001	1	j	1	0.5965654738247395
4	23	88	n/a	n/a	n/a	j	8	0.01000000000000001	2	j	1	0.5153993177227676
4	24	108	n/a	n/a	n/a	j	8	0.02000000000000001	0	j	1	0.608923074323684
4	25	68	n/a	n/a	n/a	j	8	0.03000000000000001	1	j	1	0.5602561668492854
4	26	88	n/a	n/a	n/a	f	8	0.02000000000000001	0	f	1	0.5602738428860903
4	27	68	n/a	n/a	n/a	j	8	0.03000000000000001	1	j	1	0.5911916494369507
4	28	88	n/a	n/a	n/a	j	8	0.02000000000000001	1	j	1	0.5581358880735934
4	29	88	n/a	n/a	n/a	j	8	0.01000000000000001	0	j	1	0.587791848462075
4	30	68	n/a	n/a	n/a	j	8	0.02000000000000001	1	j	1	0.6017203419469297
4	31	88	n/a	n/a	n/a	j	8	0.01000000000000001	2	j	1	0.5690865265205503
4	32	108	n/a	n/a	n/a	f	8	0.02000000000000001	1	f	1	0.5750830066390336
4	33	88	n/a	n/a	n/a	j	8	0.01000000000000001	1	j	1	0.5660522221587598
4	34	88	n/a	n/a	n/a	j	8	1.040834085586084e-17	0	j	1	0.5649933656677604
4	35	68	n/a	n/a	n/a	j	8	0.01000000000000001	0	j	1	0.6051375344395638
4	36	68	n/a	n/a	n/a	j	8	0.02000000000000001	2	j	1	0.5961104561574757
4	37	108	n/a	n/a	n/a	j	8	0.03000000000000001	1	j	1	0.5958621357567608
4	38	88	n/a	n/a	n/a	f	8	0.02000000000000001	1	f	1	0.5468074940145016
4	39	88	n/a	n/a	n/a	j	8	0.01000000000000001	0	j	1	0.5934633151628077
4	40	68	n/a	n/a	n/a	j	8	0.02000000000000001	1	j	1	0.6236449973657727
4	41	88	n/a	n/a	n/a	j	8	0.01000000000000001	2	j	1	0.6317420839332044
4	42	108	n/a	n/a	n/a	j	8	0.02000000000000001	2	j	1	0.6066847643814981
4	43	108	n/a	n/a	n/a	j	8	0.03000000000000001	1	j	1	0.5586465001106262
4	44	88	n/a	n/a	n/a	f	8	0.02000000000000001	0	f	1	0.5826663449406624
4	45	68	n/a	n/a	n/a	j	8	0.03000000000000001	1	j	1	0.6136616985313594
4	46	88	n/a	n/a	n/a	j	8	0.02000000000000001	2	j	1	0.532748709898442
4	47	108	n/a	n/a	n/a	j	8	0.03000000000000001	0	j	1	0.6355338958092034
4	48	68	n/a	n/a	n/a	j	8	0.04000000000000001	2	j	1	0.5750887086614966
4	49	108	n/a	n/a	n/a	j	8	0.05000000000000002	1	j	1	0.5264637102372944
4	50	88	n/a	n/a	n/a	f	8	0.04000000000000001	0	f	1	0.5904144705273211
4	51	68	n/a	n/a	n/a	j	8	0.05000000000000002	1	j	1	0.6130319158546627
4	52	88	n/a	n/a	n/a	j	8	0.04000000000000001	1	j	1	0.5953806038014591
4	53	88	n/a	n/a	n/a	j	8	0.03000000000000001	1	j	1	0.5842292560264468
4	54	88	n/a	n/a	n/a	j	8	0.02000000000000001	1	j	1	0.6312822196632624
4	55	88	n/a	n/a	n/a	j	8	0.01000000000000001	2	j	1	0.5268243602477014
4	56	108	n/a	n/a	n/a	f	8	0.02000000000000001	0	f	1	0.6382178142666817
4	57	68	n/a	n/a	n/a	j	8	0.03000000000000001	2	j	1	0.5492231347598135
4	58	108	n/a	n/a	n/a	j	8	0.04000000000000001	1	j	1	0.5893214028328657
4	59	88	n/a	n/a	n/a	j	8	0.03000000000000001	1	j	1	0.5959274228662252
4	60	88	n/a	n/a	n/a	j	8	0.02000000000000001	1	j	1	0.5871098921634257
4	61	88	n/a	n/a	n/a	j	8	0.01000000000000001	1	j	1	0.6049681860022247
4	62	88	n/a	n/a	n/a	f	8	1.040834085586084e-17	2	f	1	0.4739950131624937
4	63	108	n/a	n/a	n/a	j	8	0.01000000000000001	0	j	1	0.5769791975617409
4	64	68	n/a	n/a	n/a	j	8	0.02000000000000001	1	j	1	0.5759690930135548
4	65	88	n/a	n/a	n/a	j	8	0.01000000000000001	1	j	1	0.5359389642253518
4	66	88	n/a	n/a	n/a	j	8	1.040834085586084e-17	0	j	1	0.5508387885056436
4	67	68	n/a	n/a	n/a	j	8	0.01000000000000001	0	j	1	0.5498580494895577
4	68	68	n/a	n/a	n/a	f	8	0.02000000000000001	0	f	1	0.4129884666763246
4	69	68	n/a	n/a	n/a	j	8	0.03000000000000001	0	j	1	0.6439967635087669
4	70	68	n/a	n/a	n/a	j	8	0.04000000000000001	2	j	1	0.5626267618499696
4	71	108	n/a	n/a	n/a	j	8	0.05000000000000002	1	j	1	0.5769971585832536
5	0	85	f	1	0.01288075651973486	f	5	0.1	1	f	1	0.5776152522303164
5	1	85	n/a	n/a	n/a	j	5	0.09000000000000001	1	j	1	0.5353020532056689
5	2	85	n/a	n/a	n/a	f	5	0.08000000000000002	1	f	1	0.6023333040066063
5	3	85	n/a	n/a	n/a	f	5	0.07000000000000002	1	f	1	0.6022931053303182
5	4	85	n/a	n/a	n/a	f	5	0.06000000000000002	1	f	1	0.585259317420423
5	5	85	n/a	n/a	n/a	j	5	0.05000000000000002	1	j	1	0.6002167318947613
5	6	85	n/a	n/a	n/a	f	5	0.04000000000000001	1	f	1	0.5921789463609457
5	7	85	n/a	n/a	n/a	f	5	0.03000000000000001	1	f	1	0.6151846954599023
5	8	85	n/a	n/a	n/a	f	5	0.02000000000000001	2	f	1	0.5990826096385717
5	9	105	n/a	n/a	n/a	j	5	0.03000000000000001	1	j	1	0.615085766185075
5	10	85	n/a	n/a	n/a	f	5	0.02000000000000001	2	f	1	0.51769949356094
5	11	105	n/a	n/a	n/a	f	5	0.03000000000000001	0	f	1	0.6119878846220672
5	12	65	n/a	n/a	n/a	f	5	0.04000000000000001	1	f	1	0.6276383739896119
5	13	85	n/a	n/a	n/a	j	5	0.03000000000000001	2	j	1	0.6099460078403354
5	14	105	n/a	n/a	n/a	f	5	0.04000000000000001	1	f	1	0.6239118496887386
5	15	85	n/a	n/a	n/a	f	5	0.03000000000000001	2	f	1	0.5428731329739094
5	16	105	n/a	n/a	n/a	f	5	0.04000000000000001	1	f	1	0.5408845697529614
5	17	85	n/a	n/a	n/a	j	5	0.03000000000000001	0	j	1	0.5246681594289839
5	18	65	n/a	n/a	n/a	f	5	0.04000000000000001	0	f	1	0.6279320260509849
5	19	65	n/a	n/a	n/a	f	5	0.05000000000000002	1	f	1	0.6187378796748817
5	20	85	n/a	n/a	n/a	f	5	0.04000000000000001	1	f	1	0.5527261416427791
5	21	85	n/a	n/a	n/a	j	5	0.03000000000000001	0	j	1	0.5763149177655578
5	22	65	n/a	n/a	n/a	f	5	0.04000000000000001	1	f	1	0.6545998668298125
5	23	85	n/a	n/a	n/a	f	5	0.03000000000000001	2	f	1	0.6216036914847791
5	24	105	n/a	n/a	n/a	f	5	0.04000000000000001	2	f	1	0.5796440141275525
5	25	105	n/a	n/a	n/a	j	5	0.05000000000000002	1	j	1	0.601518492680043
5	26	85	n/a	n/a	n/a	f	5	0.04000000000000001	1	f	1	0.6011666809208691
5	27	85	n/a	n/a	n/a	f	5	0.03000000000000001	1	f	1	0.5764551861211658
5	28	85	n/a	n/a	n/a	f	5	0.02000000000000001	1	f	1	0.6154281697236001
5	29	85	n/a	n/a	n/a	j	5	0.01000000000000001	2	j	1	0.6234069401398301
5	30	105	n/a	n/a	n/a	f	5	0.02000000000000001	2	f	1	0.6473289965651929
5	31	105	n/a	n/a	n/a	f	5	0.03000000000000001	2	f	1	0.6383327092044055
5	32	105	n/a	n/a	n/a	f	5	0.04000000000000001	2	j	0	1.285981015767902
5	33	125	n/a	n/a	n/a	j	5	0.05000000000000002	2	f	0	1.460377276875079
5	34	125	n/a	n/a	n/a	f	5	0.06000000000000002	2	f	1	0.6031150445342064
5	35	105	n/a	n/a	n/a	f	5	0.07000000000000002	1	f	1	0.5850771395489573
5	36	85	n/a	n/a	n/a	f	5	0.06000000000000002	1	f	1	0.5830683344975114
5	37	85	n/a	n/a	n/a	j	5	0.05000000000000002	1	j	1	0.5810609543696046
5	38	85	n/a	n/a	n/a	f	5	0.04000000000000001	1	f	1	0.5558094838634133
5	39	85	n/a	n/a	n/a	f	5	0.03000000000000001	0	f	1	0.5950079797767103
5	40	65	n/a	n/a	n/a	f	5	0.04000000000000001	1	f	1	0.5021063089370728
5	41	85	n/a	n/a	n/a	j	5	0.03000000000000001	0	j	1	0.5099040418863297
5	42	65	n/a	n/a	n/a	f	5	0.04000000000000001	0	f	1	0.5170337883755565
5	43	65	n/a	n/a	n/a	f	5	0.05000000000000002	0	f	1	0.5800360250286758
5	44	65	n/a	n/a	n/a	f	5	0.06000000000000002	1	f	1	0.5783750405535102
5	45	85	n/a	n/a	n/a	j	5	0.05000000000000002	1	j	1	0.5767485527321696
5	46	85	n/a	n/a	n/a	f	5	0.04000000000000001	1	f	1	0.5977041576988995
5	47	85	n/a	n/a	n/a	f	5	0.03000000000000001	1	f	1	0.5495404493995011
5	48	85	n/a	n/a	n/a	f	5	0.02000000000000001	0	f	1	0.547704413998872
5	49	65	n/a	n/a	n/a	j	5	0.03000000000000001	0	j	1	0.5946045657619834
5	50	65	n/a	n/a	n/a	f	5	0.04000000000000001	1	f	1	0.6485640439204872
5	51	85	n/a	n/a	n/a	f	5	0.03000000000000001	2	f	1	0.5605646437034011
5	52	105	n/a	n/a	n/a	f	5	0.04000000000000001	1	f	1	0.573529789224267
5	53	85	n/a	n/a	n/a	j	5	0.03000000000000001	1	j	1	0.5646518175490201
5	54	85	n/a	n/a	n/a	f	5	0.02000000000000001	1	f	1	0.572671927511692
5	55	85	n/a	n/a	n/a	f	5	0.01000000000000001	1	f	1	0.5956206568516791
5	56	85	n/a	n/a	n/a	f	5	1.040834085586084e-17	2	f	1	0.5794011107645929
5	57	105	n/a	n/a	n/a	j	5	0.01000000000000001	1	j	1	0.571330823469907
5	58	85	n/a	n/a	n/a	f	5	1.040834085586084e-17	0	f	1	0.5923023940995336
5	59	65	n/a	n/a	n/a	f	5	0.01000000000000001	2	f	1	0.5983165493234992
5	60	105	n/a	n/a	n/a	f	5	0.02000000000000001	1	f	1	0.5499259028583765
5	61	85	n/a	n/a	n/a	j	5	0.01000000000000001	0	j	1	0.5803838456049562
5	62	65	n/a	n/a	n/a	f	5	0.02000000000000001	1	f	1	0.5578128714114428
5	63	85	n/a	n/a	n/a	f	5	0.01000000000000001	0	f	1	0.6281156288459897
5	64	65	n/a	n/a	n/a	f	5	0.02000000000000001	2	f	1	0.5390542363747954
5	65	105	n/a	n/a	n/a	j	5	0.03000000000000001	0	j	1	0.5860707079991698
5	66	65	n/a	n/a	n/a	f	5	0.04000000000000001	1	f	1	0.5610481705516577
5	67	85	n/a	n/a	n/a	f	5	0.03000000000000001	1	f	1	0.5750276972539723
5	68	85	n/a	n/a	n/a	f	5	0.02000000000000001	1	f	1	0.5669996049255133
5	69	85	n/a	n/a	n/a	j	5	0.01000000000000001	0	j	1	0.550952258054167
5	70	65	n/a	n/a	n/a	f	5	0.02000000000000001	0	f	1	0.6299673449248075
5	71	65	n/a	n/a	n/a	f	5	0.03000000000000001	2	f	1	0.6518851574510336
6	0	103	f	1	0.07373306434601545	f	3	0.1	2	j	0	0.5282284715212882
6	1	123	n/a	n/a	n/a	f	3	0.11	2	f	1	0.3170493543148041
6	2	103	n/a	n/a	n/a	j	3	0.12	2	f	0	0.2532400032505393
6	3	123	n/a	n/a	n/a	f	3	0.11	0	f	1	0.6532231257297099
6	4	63	n/a	n/a	n/a	f	3	0.12	2	f	1	0.4531249376013875
6	5	103	n/a	n/a	n/a	f	3	0.13	1	f	1	0.5479267914779484
6	6	83	n/a	n/a	n/a	f	3	0.12	1	j	0	0.2505130348727107
6	7	123	n/a	n/a	n/a	f	3	0.13	0	f	1	0.5848878333345056
6	8	63	n/a	n/a	n/a	j	3	0.14	0	f	0	0.5358400344848633
6	9	123	n/a	n/a	n/a	f	3	0.15	0	j	0	0.5314398221671581
6	10	123	n/a	n/a	n/a	f	3	0.14	2	f	1	0.6748102242127061
6	11	103	n/a	n/a	n/a	f	3	0.15	2	f	1	0.5933410082943738
6	12	103	n/a	n/a	n/a	f	3	0.16	2	f	1	0.5357091743499041
6	13	103	n/a	n/a	n/a	f	3	0.17	1	f	1	0.4796844413504004
6	14	83	n/a	n/a	n/a	j	3	0.16	1	j	1	0.5036817640066147
6	15	83	n/a	n/a	n/a	f	3	0.15	1	f	1	0.4862682241946459
6	16	83	n/a	n/a	n/a	f	3	0.14	1	f	1	0.5096896472387016
6	17	83	n/a	n/a	n/a	f	3	0.13	1	f	1	0.4665910014882684
6	18	83	n/a	n/a	n/a	f	3	0.12	1	f	1	0.4574963552877307
6	19	83	n/a	n/a	n/a	f	3	0.11	1	f	1	0.4725247593596578
6	20	83	n/a	n/a	n/a	j	3	0.1	1	j	1	0.4794851574115455
6	21	83	n/a	n/a	n/a	f	3	0.09000000000000002	2	f	1	0.4874773272313178
6	22	103	n/a	n/a	n/a	f	3	0.1	2	f	1	0.4554430744610727
6	23	103	n/a	n/a	n/a	f	3	0.11	1	f	1	0.47038395376876
6	24	83	n/a	n/a	n/a	f	3	0.1	1	f	1	0.47038395376876
6	25	83	n/a	n/a	n/a	f	3	0.09000000000000002	1	f	1	0.4209658117033541
6	26	83	n/a	n/a	n/a	j	3	0.08000000000000003	1	j	1	0.4513593218289316
6	27	83	n/a	n/a	n/a	f	3	0.07000000000000003	1	f	1	0.419282304123044
6	28	83	n/a	n/a	n/a	f	3	0.06000000000000003	1	f	1	0.4592884848825634
6	29	83	n/a	n/a	n/a	f	3	0.05000000000000003	2	f	1	0.4422472845762968
6	30	103	n/a	n/a	n/a	f	3	0.06000000000000003	1	f	1	0.4659235854633152
6	31	83	n/a	n/a	n/a	f	3	0.05000000000000003	2	f	1	0.3842026279307902
6	32	103	n/a	n/a	n/a	j	3	0.06000000000000003	1	j	1	0.3998094969429076
6	33	83	n/a	n/a	n/a	f	3	0.05000000000000003	1	f	1	0.463207165710628
6	34	83	n/a	n/a	n/a	f	3	0.04000000000000003	2	f	1	0.4460952607914805
6	35	103	n/a	n/a	n/a	f	3	0.05000000000000003	2	f	1	0.4141576560214162
6	36	103	n/a	n/a	n/a	f	3	0.06000000000000003	1	f	1	0.4452490881085396
6	37	83	n/a	n/a	n/a	f	3	0.05000000000000003	2	f	1	0.3652187651023269
6	38	103	n/a	n/a	n/a	j	3	0.06000000000000003	1	j	1	0.3950178441591561
6	39	83	n/a	n/a	n/a	f	3	0.05000000000000003	1	f	1	0.378024825360626
6	40	83	n/a	n/a	n/a	f	3	0.04000000000000003	1	f	1	0.3939749537967145
6	41	83	n/a	n/a	n/a	f	3	0.03000000000000003	1	f	1	0.3916368596255779
6	42	83	n/a	n/a	n/a	f	3	0.02000000000000002	1	f	1	0.4301277413032949
6	43	83	n/a	n/a	n/a	f	3	0.01000000000000002	2	f	1	0.3719009063206613
6	44	103	n/a	n/a	n/a	j	3	0.02000000000000002	1	j	1	0.4009302197955549
6	45	83	n/a	n/a	n/a	f	3	0.01000000000000002	2	f	1	0.4135817568749189
6	46	103	n/a	n/a	n/a	f	3	0.02000000000000002	2	f	1	0.3718125256709754
6	47	103	n/a	n/a	n/a	f	3	0.03000000000000003	1	f	1	0.379857724532485
6	48	83	n/a	n/a	n/a	f	3	0.02000000000000002	1	f	1	0.3957981592975557
6	49	83	n/a	n/a	n/a	f	3	0.01000000000000002	1	f	1	0.3707958646118641
6	50	83	n/a	n/a	n/a	j	3	2.42861286636753e-17	0	j	1	0.3617451228201389
6	51	63	n/a	n/a	n/a	f	3	0.01000000000000002	0	f	1	0.401734767947346
6	52	63	n/a	n/a	n/a	f	3	0.02000000000000002	1	f	1	0.3766520754434168
6	53	83	n/a	n/a	n/a	f	3	0.01000000000000002	1	f	1	0.3916676500812173
6	54	83	n/a	n/a	n/a	f	3	2.42861286636753e-17	2	f	1	0.4316775375045836
6	55	103	n/a	n/a	n/a	f	3	0.01000000000000002	2	f	1	0.3996427147649229
6	56	103	n/a	n/a	n/a	j	3	0.02000000000000002	1	j	1	0.4145895806141198
6	57	83	n/a	n/a	n/a	f	3	0.01000000000000002	2	f	1	0.4056260795332491
6	58	103	n/a	n/a	n/a	f	3	0.02000000000000002	2	f	1	0.4377005309797823
6	59	103	n/a	n/a	n/a	f	3	0.03000000000000003	2	f	1	0.4293505623936653
6	60	103	n/a	n/a	n/a	f	3	0.04000000000000003	2	f	1	0.4286537813022733
6	61	103	n/a	n/a	n/a	f	3	0.05000000000000003	1	f	1	0.3646722305566072
6	62	83	n/a	n/a	n/a	j	3	0.04000000000000003	1	j	1	0.4126486289314926
6	63	83	n/a	n/a	n/a	f	3	0.03000000000000003	2	f	1	0.3806160865351558
6	64	103	n/a	n/a	n/a	f	3	0.04000000000000003	1	f	1	0.387584182433784
6	65	83	n/a	n/a	n/a	f	3	0.03000000000000003	1	f	1	0.3703933050855994
6	66	83	n/a	n/a	n/a	f	3	0.02000000000000002	1	f	1	0.386377930175513
6	67	83	n/a	n/a	n/a	f	3	0.01000000000000002	1	f	1	0.3703565271571279
6	68	83	n/a	n/a	n/a	j	3	2.42861286636753e-17	0	j	1	0.38631691923365
6	69	63	n/a	n/a	n/a	f	3	0.01000000000000002	1	f	1	0.4073666064068675
6	70	83	n/a	n/a	n/a	f	3	2.42861286636753e-17	2	f	1	0.4368894253857434
6	71	103	n/a	n/a	n/a	f	3	0.01000000000000002	2	f	1	0.3962201052345335
7	0	107	f	1	1.139727126341313	f	7	0.1	0	f	1	0.5700977714732289
7	1	67	n/a	n/a	n/a	f	7	0.11	1	f	1	0.5429629390127957
7	2	87	n/a	n/a	n/a	j	7	0.1	1	j	1	0.5330483485013247
7	3	87	n/a	n/a	n/a	f	7	0.09000000000000001	1	f	1	0.5719754314050078
7	4	87	n/a	n/a	n/a	f	7	0.08000000000000002	1	f	1	0.5399591396562755
7	5	87	n/a	n/a	n/a	f	7	0.07000000000000002	1	f	1	0.5149192116223276
7	6	87	n/a	n/a	n/a	f	7	0.06000000000000002	0	f	1	0.512924091424793
7	7	67	n/a	n/a	n/a	f	7	0.07000000000000002	1	f	1	0.5330067244358361
7	8	87	n/a	n/a	n/a	j	7	0.06000000000000002	1	j	1	0.5000102636404335
7	9	87	n/a	n/a	n/a	f	7	0.05000000000000002	0	f	1	0.5077837626449764
7	10	67	n/a	n/a	n/a	f	7	0.06000000000000002	0	f	1	0.506760258693248
7	11	67	n/a	n/a	n/a	f	7	0.07000000000000002	0	f	1	0.4807296129874885
7	12	67	n/a	n/a	n/a	f	7	0.08000000000000002	0	f	1	0.5027181305922568
7	13	67	n/a	n/a	n/a	f	7	0.09000000000000001	1	f	1	0.5026944670826197
7	14	87	n/a	n/a	n/a	j	7	0.08000000000000002	0	j	1	0.4626797330565751
7	15	67	n/a	n/a	n/a	f	7	0.09000000000000001	0	f	1	0.493637453764677
7	16	67	n/a	n/a	n/a	f	7	0.1	1	f	1	0.4597871229052544
7	17	87	n/a	n/a	n/a	f	7	0.09000000000000001	0	f	1	0.5075673731043935
7	18	67	n/a	n/a	n/a	f	7	0.1	1	f	1	0.5135433254763484
7	19	87	n/a	n/a	n/a	f	7	0.09000000000000001	1	f	1	0.4564645830541849
7	20	87	n/a	n/a	n/a	j	7	0.08000000000000002	0	j	1	0.4874935783445835
7	21	67	n/a	n/a	n/a	f	7	0.09000000000000001	0	f	1	0.4954512510448694
7	22	67	n/a	n/a	n/a	f	7	0.1	1	f	1	0.5114367315545678
7	23	87	n/a	n/a	n/a	f	7	0.09000000000000001	1	f	1	0.478333359118551
7	24	87	n/a	n/a	n/a	f	7	0.08000000000000002	0	f	1	0.4863509028218687
7	25	67	n/a	n/a	n/a	f	7	0.09000000000000001	0	f	1	0.4451627028174698
7	26	67	n/a	n/a	n/a	j	7	0.1	0	j	1	0.44452721811831
7	27	67	n/a	n/a	n/a	f	7	0.11	0	f	1	0.5164678674191236
7	28	67	n/a	n/a	n/a	f	7	0.12	1	f	1	0.5142358304001391
7	29	87	n/a	n/a	n/a	f	7	0.11	1	f	1	0.466204977594316
7	30	87	n/a	n/a	n/a	f	7	0.1	0	f	1	0.5542035228572786
7	31	67	n/a	n/a	n/a	f	7	0.11	1	f	1	0.4571533813141286
7	32	87	n/a	n/a	n/a	j	7	0.1	0	j	1	0.4331030305474997
7	33	67	n/a	n/a	n/a	f	7	0.11	0	f	1	0.5357565004378557
7	34	67	n/a	n/a	n/a	f	7	0.12	1	f	1	0.5421027964912355
7	35	87	n/a	n/a	n/a	f	7	0.11	1	f	1	0.5410767262801528
7	36	87	n/a	n/a	n/a	f	7	0.1	1	f	1	0.5389612945728004
7	37	87	n/a	n/a	n/a	f	7	0.09000000000000001	1	f	1	0.4909806195646524
7	38	87	n/a	n/a	n/a	j	7	0.08000000000000002	0	j	1	0.5229512955993414
7	39	67	n/a	n/a	n/a	f	7	0.09000000000000001	1	f	1	0.5941635179333389
7	40	87	n/a	n/a	n/a	f	7	0.08000000000000002	1	f	1	0.4728814177215099
7	41	87	n/a	n/a	n/a	f	7	0.07000000000000002	0	f	1	0.5528538660146296
7	42	67	n/a	n/a	n/a	f	7	0.08000000000000002	1	f	1	0.5178277879022062
7	43	87	n/a	n/a	n/a	f	7	0.07000000000000002	1	f	1	0.596909302752465
7	44	87	n/a	n/a	n/a	j	7	0.06000000000000002	1	j	1	0.531783081125468
7	45	87	n/a	n/a	n/a	f	7	0.05000000000000002	0	f	1	0.5385504676960409
7	46	67	n/a	n/a	n/a	f	7	0.06000000000000002	1	f	1	0.5116402921266854
7	47	87	n/a	n/a	n/a	f	7	0.05000000000000002	0	f	1	0.5196604020893574
7	48	67	n/a	n/a	n/a	f	7	0.06000000000000002	0	f	1	0.5398114584386349
7	49	67	n/a	n/a	n/a	f	7	0.07000000000000002	1	f	1	0.4915548083372414
7	50	87	n/a	n/a	n/a	j	7	0.06000000000000002	0	j	1	0.6475433907471597
7	51	67	n/a	n/a	n/a	f	7	0.07000000000000002	1	f	1	0.4865450547076762
7	52	87	n/a	n/a	n/a	f	7	0.06000000000000002	0	f	1	0.5424432042054832
7	53	67	n/a	n/a	n/a	f	7	0.07000000000000002	1	f	1	0.541489549446851
7	54	87	n/a	n/a	n/a	f	7	0.06000000000000002	1	f	1	0.5405458728782833
7	55	87	n/a	n/a	n/a	f	7	0.05000000000000002	1	f	1	0.5006460333243012
7	56	87	n/a	n/a	n/a	j	7	0.04000000000000001	0	j	1	0.5791445216163993
7	57	67	n/a	n/a	n/a	f	7	0.05000000000000002	1	f	1	0.6013280465267599
7	58	87	n/a	n/a	n/a	f	7	0.04000000000000001	1	f	1	0.5522745451889932
7	59	87	n/a	n/a	n/a	f	7	0.03000000000000001	0	f	1	0.519297756254673
7	60	67	n/a	n/a	n/a	f	7	0.04000000000000001	0	f	1	0.5672222669236362
7	61	67	n/a	n/a	n/a	f	7	0.05000000000000002	1	f	1	0.5271864356473088
7	62	87	n/a	n/a	n/a	j	7	0.04000000000000001	0	j	1	0.5821058410219848
7	63	67	n/a	n/a	n/a	f	7	0.05000000000000002	1	f	1	0.5661425981670618
7	64	87	n/a	n/a	n/a	f	7	0.04000000000000001	1	f	1	0.5571092483587563
7	65	87	n/a	n/a	n/a	f	7	0.03000000000000001	1	f	1	0.5558716347441077
7	66	87	n/a	n/a	n/a	f	7	0.02000000000000001	0	f	1	0.5619841497391462
7	67	67	n/a	n/a	n/a	f	7	0.03000000000000001	1	f	1	0.5610319203697145
7	68	87	n/a	n/a	n/a	j	7	0.02000000000000001	0	j	1	0.5999501645565033
7	69	67	n/a	n/a	n/a	f	7	0.03000000000000001	1	f	1	0.6149594676680863
7	70	87	n/a	n/a	n/a	f	7	0.02000000000000001	2	f	1	0.5738910092040896
7	71	107	n/a	n/a	n/a	f	7	0.03000000000000001	1	f	1	0.5458395844325423
8	0	90	j	1	0.9249443630687892	j	10	0.1	0	j	1	0.8292706776410341
8	1	70	n/a	n/a	n/a	f	10	0.11	0	f	1	0.8817961099557579
8	2	70	n/a	n/a	n/a	j	10	0.12	1	j	1	0.9051040639169514
8	3	90	n/a	n/a	n/a	j	10	0.11	1	j	1	0.8560400139540434
8	4	90	n/a	n/a	n/a	j	10	0.1	0	j	1	0.862995280418545
8	5	70	n/a	n/a	n/a	f	10	0.11	0	f	1	0.941917710006237
8	6	70	n/a	n/a	n/a	j	10	0.12	1	j	1	0.9168943176046014
8	7	90	n/a	n/a	n/a	j	10	0.11	1	j	1	0.865809774491936
8	8	90	n/a	n/a	n/a	j	10	0.1	0	j	1	0.8873874642886221
8	9	70	n/a	n/a	n/a	f	10	0.11	1	f	1	0.8539433986879885
8	10	90	n/a	n/a	n/a	j	10	0.1	0	j	1	0.9248545570299029
8	11	70	n/a	n/a	n/a	j	10	0.11	1	j	1	0.881655556615442
8	12	90	n/a	n/a	n/a	j	10	0.1	0	j	1	1.024601446464658
8	13	70	n/a	n/a	n/a	f	10	0.11	1	f	1	0.9835418257862329
8	14	90	n/a	n/a	n/a	j	10	0.1	1	j	1	0.9514995901845396
8	15	90	n/a	n/a	n/a	j	10	0.09000000000000001	1	j	1	0.8704289421439171
8	16	90	n/a	n/a	n/a	j	10	0.08000000000000002	0	j	1	1.942339656408876
8	17	70	n/a	n/a	n/a	f	10	0.09000000000000001	2	f	1	0.7470271335914731
8	18	110	n/a	n/a	n/a	j	10	0.1	0	j	1	0.8488412736915052
8	19	70	n/a	n/a	n/a	j	10	0.11	0	j	1	0.8471346730366349
8	20	70	n/a	n/a	n/a	j	10	0.12	0	j	1	0.9420936163514853
8	21	70	n/a	n/a	n/a	f	10	0.13	1	f	1	0.9306802623905241
8	22	90	n/a	n/a	n/a	j	10	0.12	1	j	1	0.857029021717608
8	23	90	n/a	n/a	n/a	j	10	0.11	0	j	1	0.8719721809029579
8	24	70	n/a	n/a	n/a	j	10	0.12	1	j	1	0.8949554073624313
8	25	90	n/a	n/a	n/a	f	10	0.11	1	f	1	0.8428065907210112
8	26	90	n/a	n/a	n/a	j	10	0.1	0	j	1	0.8488139039836824
8	27	70	n/a	n/a	n/a	j	10	0.11	0	j	1	0.7676945040002465
8	28	70	n/a	n/a	n/a	j	10	0.12	0	j	1	0.8617260213941336
8	29	70	n/a	n/a	n/a	f	10	0.13	1	f	1	0.835844196844846
8	30	90	n/a	n/a	n/a	j	10	0.12	0	j	1	0.8492081956937909
8	31	70	n/a	n/a	n/a	j	10	0.13	0	j	1	0.9276003418490291
8	32	70	n/a	n/a	n/a	j	10	0.14	1	j	1	1.034499785862863
8	33	90	n/a	n/a	n/a	f	10	0.13	1	f	1	1.034397435840219
8	34	90	n/a	n/a	n/a	j	10	0.12	1	j	1	0.9843329750001431
8	35	90	n/a	n/a	n/a	j	10	0.11	1	j	1	1.00812816247344
8	36	90	n/a	n/a	n/a	j	10	0.1	1	j	1	0.9542160099372268
8	37	90	n/a	n/a	n/a	f	10	0.09000000000000002	1	f	1	0.9378869859501719
8	38	90	n/a	n/a	n/a	j	10	0.08000000000000003	1	j	1	0.9120812830515206
8	39	90	n/a	n/a	n/a	j	10	0.07000000000000003	0	j	1	0.9667728943750262
8	40	70	n/a	n/a	n/a	j	10	0.08000000000000003	1	j	1	1.021090171765536
8	41	90	n/a	n/a	n/a	f	10	0.07000000000000003	1	f	1	1.019945215433836
8	42	90	n/a	n/a	n/a	j	10	0.06000000000000003	1	j	1	1.041892108507454
8	43	90	n/a	n/a	n/a	j	10	0.05000000000000003	2	j	1	0.975527988281101
8	44	110	n/a	n/a	n/a	j	10	0.06000000000000003	1	j	1	0.8519995962269604
8	45	90	n/a	n/a	n/a	f	10	0.05000000000000003	0	f	1	0.9077794295735657
8	46	70	n/a	n/a	n/a	j	10	0.06000000000000003	0	j	1	0.9476872514933348
8	47	70	n/a	n/a	n/a	j	10	0.07000000000000003	1	j	1	1.009660852141678
8	48	90	n/a	n/a	n/a	j	10	0.06000000000000003	1	j	1	1.065568409394473
8	49	90	n/a	n/a	n/a	f	10	0.05000000000000003	2	f	1	0.9834996312856674
8	50	110	n/a	n/a	n/a	j	10	0.06000000000000003	1	j	1	0.9495110274292529
8	51	90	n/a	n/a	n/a	j	10	0.05000000000000003	1	j	1	0.9086053599603474
8	52	90	n/a	n/a	n/a	j	10	0.04000000000000003	0	j	1	1.500352096743882
8	53	70	n/a	n/a	n/a	f	10	0.05000000000000003	2	f	1	0.8683109446428716
8	54	110	n/a	n/a	n/a	j	10	0.06000000000000003	0	j	1	0.8502137386240065
8	55	70	n/a	n/a	n/a	j	10	0.07000000000000003	0	j	1	0.8341769399121404
8	56	70	n/a	n/a	n/a	j	10	0.08000000000000003	0	j	1	1.040077740792185
8	57	70	n/a	n/a	n/a	f	10	0.09000000000000002	1	f	1	0.9351067040115595
8	58	90	n/a	n/a	n/a	j	10	0.08000000000000003	1	j	1	0.9430549689568579
8	59	90	n/a	n/a	n/a	j	10	0.07000000000000003	1	j	1	0.9699198128655553
8	60	90	n/a	n/a	n/a	j	10	0.06000000000000003	1	j	1	1.016905493568629
8	61	90	n/a	n/a	n/a	f	10	0.05000000000000003	1	f	1	0.9988712943159044
8	62	90	n/a	n/a	n/a	j	10	0.04000000000000003	1	j	1	0.8906125002540648
8	63	90	n/a	n/a	n/a	j	10	0.03000000000000003	0	j	1	0.9219898860901594
8	64	70	n/a	n/a	n/a	j	10	0.04000000000000003	0	j	1	0.91872892761603
8	65	70	n/a	n/a	n/a	f	10	0.05000000000000003	0	f	1	0.8768373890779912
8	66	70	n/a	n/a	n/a	j	10	0.06000000000000003	0	j	1	0.9713951987214386
8	67	70	n/a	n/a	n/a	j	10	0.07000000000000003	1	j	1	1.018488361500204
8	68	90	n/a	n/a	n/a	j	10	0.06000000000000003	1	j	1	0.9374559163115919
8	69	90	n/a	n/a	n/a	f	10	0.05000000000000003	1	f	1	0.9103581462986767
8	70	90	n/a	n/a	n/a	j	10	0.04000000000000003	0	j	1	1.461353739723563
8	71	70	n/a	n/a	n/a	j	10	0.05000000000000003	2	j	1	0.8674362618476152
9	0	111	f	1	0.8552779452875257	f	11	0.1	0	f	1	0.8976384713314474
9	1	71	n/a	n/a	n/a	f	11	0.11	1	f	1	0.9820353649556637
9	2	91	n/a	n/a	n/a	j	11	0.1	1	f	0	0.9393204618245363
9	3	131	n/a	n/a	n/a	f	11	0.09000000000000001	1	f	1	0.8974511614069343
9	4	91	n/a	n/a	n/a	f	11	0.08000000000000002	0	f	1	0.97635163879022
9	5	71	n/a	n/a	n/a	f	11	0.09000000000000001	0	j	0	1.016331305261701
9	6	131	n/a	n/a	n/a	f	11	0.08000000000000002	1	f	1	1.03925694199279
9	7	91	n/a	n/a	n/a	f	11	0.07000000000000002	1	f	1	0.9897030922584236
9	8	91	n/a	n/a	n/a	j	11	0.06000000000000002	1	j	1	0.9398319288156927
9	9	91	n/a	n/a	n/a	f	11	0.05000000000000002	1	f	1	0.9370872839353979
9	10	91	n/a	n/a	n/a	f	11	0.04000000000000001	0	f	1	0.9760571313090622
9	11	71	n/a	n/a	n/a	f	11	0.05000000000000002	1	f	1	1.023031692951918
9	12	91	n/a	n/a	n/a	f	11	0.04000000000000001	2	f	1	0.9321094616316259
9	13	111	n/a	n/a	n/a	f	11	0.05000000000000002	0	f	1	0.8888799557462335
9	14	71	n/a	n/a	n/a	j	11	0.06000000000000002	0	j	1	1.078828632365912
9	15	71	n/a	n/a	n/a	f	11	0.07000000000000002	2	f	1	0.9664752511307597
9	16	111	n/a	n/a	n/a	f	11	0.08000000000000002	1	f	1	0.9307369966991246
9	17	91	n/a	n/a	n/a	f	11	0.07000000000000002	1	f	1	0.8876751288771629
9	18	91	n/a	n/a	n/a	f	11	0.06000000000000002	0	f	1	0.8386253342032433
9	19	71	n/a	n/a	n/a	f	11	0.07000000000000002	0	f	1	0.9425808498635888
9	20	71	n/a	n/a	n/a	j	11	0.08000000000000002	1	j	1	0.9185456093400717
9	21	91	n/a	n/a	n/a	f	11	0.07000000000000002	1	f	1	0.8935892153531313
9	22	91	n/a	n/a	n/a	f	11	0.06000000000000002	0	f	1	0.933559188619256
9	23	71	n/a	n/a	n/a	f	11	0.07000000000000002	1	f	1	1.01248304406181
9	24	91	n/a	n/a	n/a	f	11	0.06000000000000002	1	f	1	0.9303099191747606
9	25	91	n/a	n/a	n/a	f	11	0.05000000000000002	0	f	1	0.904194314032793
9	26	71	n/a	n/a	n/a	j	11	0.06000000000000002	0	j	1	1.030843110755086
9	27	71	n/a	n/a	n/a	f	11	0.07000000000000002	1	f	1	1.004712680820376
9	28	91	n/a	n/a	n/a	f	11	0.06000000000000002	1	f	1	0.948031079955399
9	29	91	n/a	n/a	n/a	f	11	0.05000000000000002	1	f	1	0.8980207880958915
9	30	91	n/a	n/a	n/a	f	11	0.04000000000000001	0	f	1	0.8819546247832477
9	31	71	n/a	n/a	n/a	f	11	0.05000000000000002	0	f	1	0.9765837085433304
9	32	71	n/a	n/a	n/a	j	11	0.06000000000000002	1	j	1	1.014831686392426
9	33	91	n/a	n/a	n/a	f	11	0.05000000000000002	1	f	1	0.9558544717729092
9	34	91	n/a	n/a	n/a	f	11	0.04000000000000001	1	f	1	0.986727518029511
9	35	91	n/a	n/a	n/a	f	11	0.03000000000000001	1	f	1	0.921685685403645
9	36	91	n/a	n/a	n/a	f	11	0.02000000000000001	0	f	1	0.929670728277415
9	37	71	n/a	n/a	n/a	f	11	0.03000000000000001	0	f	1	0.9452180117368698
9	38	71	n/a	n/a	n/a	j	11	0.04000000000000001	1	j	1	0.9911052077077329
9	39	91	n/a	n/a	n/a	f	11	0.03000000000000001	1	f	1	1.005485583096743
9	40	91	n/a	n/a	n/a	f	11	0.02000000000000001	1	f	1	0.9224129724316299
9	41	91	n/a	n/a	n/a	f	11	0.01000000000000001	0	f	1	0.9509898335672915
9	42	71	n/a	n/a	n/a	f	11	0.02000000000000001	0	f	1	1.421328172087669
9	43	71	n/a	n/a	n/a	f	11	0.03000000000000001	2	f	1	0.940425219014287
9	44	111	n/a	n/a	n/a	j	11	0.04000000000000001	0	j	1	1.026131000835449
9	45	71	n/a	n/a	n/a	f	11	0.05000000000000002	1	f	1	0.9767752951011062
9	46	91	n/a	n/a	n/a	f	11	0.04000000000000001	1	f	1	0.9730784208513796
9	47	91	n/a	n/a	n/a	f	11	0.03000000000000001	1	f	1	0.9936100845225155
9	48	91	n/a	n/a	n/a	f	11	0.02000000000000001	1	f	1	0.9029775131493807
9	49	91	n/a	n/a	n/a	f	11	0.01000000000000001	0	f	1	1.006890548858792
9	50	71	n/a	n/a	n/a	j	11	0.02000000000000001	2	j	1	1.012407492380589
9	51	111	n/a	n/a	n/a	f	11	0.03000000000000001	1	f	1	1.01179481530562
9	52	91	n/a	n/a	n/a	f	11	0.02000000000000001	2	f	1	0.9637097949162126
9	53	111	n/a	n/a	n/a	f	11	0.03000000000000001	1	f	1	0.9126469185575843
9	54	91	n/a	n/a	n/a	f	11	0.02000000000000001	0	f	1	0.9167842702008784
9	55	71	n/a	n/a	n/a	f	11	0.03000000000000001	0	f	1	0.9327415255829692
9	56	71	n/a	n/a	n/a	j	11	0.04000000000000001	0	j	1	0.9326713914051652
9	57	71	n/a	n/a	n/a	f	11	0.05000000000000002	0	f	1	0.8651084317825735
9	58	71	n/a	n/a	n/a	f	11	0.06000000000000002	0	f	1	0.8703927346505225
9	59	71	n/a	n/a	n/a	f	11	0.07000000000000002	0	f	1	0.7973222397267818
9	60	71	n/a	n/a	n/a	f	11	0.08000000000000002	0	f	1	1.021470208186656
9	61	71	n/a	n/a	n/a	f	11	0.09000000000000001	1	f	1	0.993192414753139
9	62	91	n/a	n/a	n/a	j	11	0.08000000000000002	1	j	1	1.000170774292201
9	63	91	n/a	n/a	n/a	f	11	0.07000000000000002	1	f	1	0.9908044287003577
9	64	91	n/a	n/a	n/a	f	11	0.06000000000000002	1	f	1	1.005204190500081
9	65	91	n/a	n/a	n/a	f	11	0.05000000000000002	1	f	1	0.9789967834949493
9	66	91	n/a	n/a	n/a	f	11	0.04000000000000001	1	f	1	0.9699429059401155
9	67	91	n/a	n/a	n/a	f	11	0.03000000000000001	1	f	1	1.00186055386439
9	68	91	n/a	n/a	n/a	j	11	0.02000000000000001	1	j	1	1.000843891873956
9	69	91	n/a	n/a	n/a	f	11	0.01000000000000001	2	f	1	1.000786017160863
9	70	111	n/a	n/a	n/a	f	11	0.02000000000000001	1	f	1	0.999367936514318
9	71	91	n/a	n/a	n/a	f	11	0.01000000000000001	2	f	1	1.050623538903892
10	0	109	f	1	1.309781620278955	f	9	0.1	1	f	1	0.944158015307039
10	1	89	n/a	n/a	n/a	j	9	0.09000000000000001	1	f	0	0.9414629777893424
10	2	129	n/a	n/a	n/a	f	9	0.08000000000000002	1	f	1	0.9948231792077422
10	3	89	n/a	n/a	n/a	f	9	0.07000000000000002	1	f	1	0.953418874181807
10	4	89	n/a	n/a	n/a	f	9	0.06000000000000002	1	f	1	0.9527280805632472
10	5	89	n/a	n/a	n/a	j	9	0.05000000000000002	1	j	1	1.008668139111251
10	6	89	n/a	n/a	n/a	f	9	0.04000000000000001	1	f	1	0.9185724086128175
10	7	89	n/a	n/a	n/a	f	9	0.03000000000000001	0	f	1	0.9335680264048278
10	8	69	n/a	n/a	n/a	f	9	0.04000000000000001	0	f	1	0.9086367208510637
10	9	69	n/a	n/a	n/a	j	9	0.05000000000000002	0	j	1	0.9304145504720509
10	10	69	n/a	n/a	n/a	f	9	0.06000000000000002	1	f	1	0.9523910935968161
10	11	89	n/a	n/a	n/a	f	9	0.05000000000000002	1	f	1	0.9910618728026748
10	12	89	n/a	n/a	n/a	f	9	0.04000000000000001	1	f	1	0.9102495238184929
10	13	89	n/a	n/a	n/a	j	9	0.03000000000000001	0	j	1	0.9901729351840913
10	14	69	n/a	n/a	n/a	f	9	0.04000000000000001	1	f	1	0.9821257409639657
10	15	89	n/a	n/a	n/a	f	9	0.03000000000000001	1	f	1	1.037164602894336
10	16	89	n/a	n/a	n/a	f	9	0.02000000000000001	2	f	1	1.021248116157949
10	17	109	n/a	n/a	n/a	j	9	0.03000000000000001	2	j	1	1.090519672259688
10	18	109	n/a	n/a	n/a	f	9	0.04000000000000001	2	f	1	0.9989357264712453
10	19	109	n/a	n/a	n/a	f	9	0.05000000000000002	1	f	1	0.8945263344794512
10	20	89	n/a	n/a	n/a	f	9	0.04000000000000001	0	f	1	0.9387636641040444
10	21	69	n/a	n/a	n/a	j	9	0.05000000000000002	1	j	1	1.017786448821425
10	22	89	n/a	n/a	n/a	f	9	0.04000000000000001	1	f	1	1.065703831613064
10	23	89	n/a	n/a	n/a	f	9	0.03000000000000001	2	f	1	1.008622237946838
10	24	109	n/a	n/a	n/a	f	9	0.04000000000000001	1	f	1	0.9982090103439987
10	25	89	n/a	n/a	n/a	j	9	0.03000000000000001	1	j	1	0.9577136002480984
10	26	89	n/a	n/a	n/a	f	9	0.02000000000000001	0	f	1	0.9976570592261851
10	27	69	n/a	n/a	n/a	f	9	0.03000000000000001	1	f	1	1.03438032977283
10	28	89	n/a	n/a	n/a	f	9	0.02000000000000001	2	f	1	1.009310180786997
10	29	109	n/a	n/a	n/a	j	9	0.03000000000000001	1	j	1	1.632257542107254
10	30	89	n/a	n/a	n/a	f	9	0.02000000000000001	2	f	1	0.986218617297709
10	31	109	n/a	n/a	n/a	f	9	0.03000000000000001	1	f	1	0.960057110991329
10	32	89	n/a	n/a	n/a	f	9	0.02000000000000001	0	f	1	1.055082196835428
10	33	69	n/a	n/a	n/a	j	9	0.03000000000000001	2	j	1	1.028482778929174
10	34	109	n/a	n/a	n/a	f	9	0.04000000000000001	2	f	1	0.9769856976345181
10	35	109	n/a	n/a	n/a	f	9	0.05000000000000002	1	f	1	0.9369435948319733
10	36	89	n/a	n/a	n/a	f	9	0.04000000000000001	0	f	1	0.9428970240987837
10	37	69	n/a	n/a	n/a	j	9	0.05000000000000002	1	j	1	0.9729883298277855
10	38	89	n/a	n/a	n/a	f	9	0.04000000000000001	1	f	1	0.9626976945437491
10	39	89	n/a	n/a	n/a	f	9	0.03000000000000001	1	f	1	0.9936796482652426
10	40	89	n/a	n/a	n/a	f	9	0.02000000000000001	1	f	1	0.9920032685622573
10	41	89	n/a	n/a	n/a	j	9	0.01000000000000001	2	j	1	0.9665610659867525
10	42	109	n/a	n/a	n/a	f	9	0.02000000000000001	1	f	1	0.9498545709066093
10	43	89	n/a	n/a	n/a	f	9	0.01000000000000001	0	f	1	0.9486374850384891
10	44	69	n/a	n/a	n/a	f	9	0.02000000000000001	0	f	1	1.010390704963356
10	45	69	n/a	n/a	n/a	j	9	0.03000000000000001	1	j	1	1.009326716884971
10	46	89	n/a	n/a	n/a	f	9	0.02000000000000001	2	f	1	1.04723400156945
10	47	109	n/a	n/a	n/a	f	9	0.03000000000000001	2	f	1	0.974240483250469
10	48	109	n/a	n/a	n/a	f	9	0.04000000000000001	1	f	1	1.020000524818897
10	49	89	n/a	n/a	n/a	j	9	0.03000000000000001	2	j	1	1.019076234661043
10	50	109	n/a	n/a	n/a	f	9	0.04000000000000001	1	f	1	1.03306146338582
10	51	89	n/a	n/a	n/a	f	9	0.03000000000000001	2	f	1	0.9830500306561589
10	52	109	n/a	n/a	n/a	f	9	0.04000000000000001	1	f	1	0.932168762665242
10	53	89	n/a	n/a	n/a	j	9	0.03000000000000001	0	j	1	1.002859824337065
10	54	69	n/a	n/a	n/a	f	9	0.04000000000000001	1	f	1	1.02373930811882
10	55	89	n/a	n/a	n/a	f	9	0.03000000000000001	2	f	1	1.094746829941869
10	56	109	n/a	n/a	n/a	f	9	0.04000000000000001	2	f	1	0.8617428420111537
10	57	109	n/a	n/a	n/a	j	9	0.05000000000000002	0	j	1	0.9957326436415315
10	58	69	n/a	n/a	n/a	f	9	0.06000000000000002	1	f	1	0.9856067951768637
10	59	89	n/a	n/a	n/a	f	9	0.05000000000000002	1	f	1	0.9691466256044805
10	60	89	n/a	n/a	n/a	f	9	0.04000000000000001	1	f	1	0.9264861764386296
10	61	89	n/a	n/a	n/a	j	9	0.03000000000000001	0	j	1	0.9176324382424355
10	62	69	n/a	n/a	n/a	f	9	0.04000000000000001	0	f	1	0.9805482900701463
10	63	69	n/a	n/a	n/a	f	9	0.05000000000000002	1	f	1	0.9403228685259819
10	64	89	n/a	n/a	n/a	f	9	0.04000000000000001	0	f	1	1.001239323988557
10	65	69	n/a	n/a	n/a	j	9	0.05000000000000002	1	j	1	1.112838048487902
10	66	89	n/a	n/a	n/a	f	9	0.04000000000000001	2	f	1	0.9991757795214653
10	67	109	n/a	n/a	n/a	f	9	0.05000000000000002	1	f	1	1.013115107081831
10	68	89	n/a	n/a	n/a	f	9	0.04000000000000001	1	f	1	0.8772447956725955
10	69	89	n/a	n/a	n/a	j	9	0.03000000000000001	0	j	1	1.018972744233906
10	70	69	n/a	n/a	n/a	f	9	0.04000000000000001	1	f	1	1.088906299322844
10	71	89	n/a	n/a	n/a	f	9	0.03000000000000001	2	f	1	0.9348278772085905
11	0	104	j	1	1.027668537572026	j	4	0.1	2	j	1	0.4689524732530117
11	1	104	n/a	n/a	n/a	j	4	0.11	1	j	1	0.5215277979150414
11	2	84	n/a	n/a	n/a	f	4	0.1	2	f	1	0.998905221465975
11	3	104	n/a	n/a	n/a	j	4	0.11	2	j	1	0.565738043282181
11	4	104	n/a	n/a	n/a	j	4	0.12	2	j	1	0.4619915052317083
11	5	104	n/a	n/a	n/a	j	4	0.13	1	j	1	0.4699836755171418
11	6	84	n/a	n/a	n/a	j	4	0.12	1	j	1	0.4855070109479129
11	7	84	n/a	n/a	n/a	j	4	0.11	1	j	1	0.4586917734704912
11	8	84	n/a	n/a	n/a	f	4	0.1	1	f	1	0.4907097760587931
11	9	84	n/a	n/a	n/a	j	4	0.09000000000000002	2	j	1	0.5466592428274453
11	10	104	n/a	n/a	n/a	j	4	0.1	2	j	1	0.5205912487581372
11	11	104	n/a	n/a	n/a	j	4	0.11	2	j	1	0.4636271158233285
11	12	104	n/a	n/a	n/a	j	4	0.12	1	j	1	0.4875833843834698
11	13	84	n/a	n/a	n/a	j	4	0.11	1	j	1	0.4555534077808261
11	14	84	n/a	n/a	n/a	f	4	0.1	1	f	1	0.4465286103077233
11	15	84	n/a	n/a	n/a	j	4	0.09000000000000002	1	j	1	0.4944445677101612
11	16	84	n/a	n/a	n/a	j	4	0.08000000000000003	2	j	1	0.4693002938292921
11	17	104	n/a	n/a	n/a	j	4	0.09000000000000002	1	j	1	0.4376246947795153
11	18	84	n/a	n/a	n/a	j	4	0.08000000000000003	1	j	1	0.4375976105220616
11	19	84	n/a	n/a	n/a	j	4	0.07000000000000003	1	j	1	0.4285807958804071
11	20	84	n/a	n/a	n/a	f	4	0.06000000000000003	1	f	1	0.4525547404773533
11	21	84	n/a	n/a	n/a	j	4	0.05000000000000003	2	j	1	0.5004789656959474
11	22	104	n/a	n/a	n/a	j	4	0.06000000000000003	2	j	1	0.4982694513164461
11	23	104	n/a	n/a	n/a	j	4	0.07000000000000003	2	j	1	0.440231922082603
11	24	104	n/a	n/a	n/a	j	4	0.08000000000000003	1	j	1	0.4392243837937713
11	25	84	n/a	n/a	n/a	j	4	0.07000000000000003	1	j	1	0.422259874176234
11	26	84	n/a	n/a	n/a	f	4	0.06000000000000003	1	f	1	0.4539129501208663
11	27	84	n/a	n/a	n/a	j	4	0.05000000000000003	2	j	1	0.4202416613698006
11	28	104	n/a	n/a	n/a	j	4	0.06000000000000003	1	j	1	0.4191722562536597
11	29	84	n/a	n/a	n/a	j	4	0.05000000000000003	1	j	1	0.4181530284695327
11	30	84	n/a	n/a	n/a	j	4	0.04000000000000003	1	j	1	0.3940764483995736
11	31	84	n/a	n/a	n/a	j	4	0.03000000000000003	1	j	1	0.4091165424324572
11	32	84	n/a	n/a	n/a	f	4	0.02000000000000002	2	f	1	0.4390801233239472
11	33	104	n/a	n/a	n/a	j	4	0.03000000000000003	2	j	1	0.4450797392055392
11	34	104	n/a	n/a	n/a	j	4	0.04000000000000003	2	j	1	0.4110041800886393
11	35	104	n/a	n/a	n/a	j	4	0.05000000000000003	1	j	1	0.3779900432564318
11	36	84	n/a	n/a	n/a	j	4	0.04000000000000003	1	j	1	0.3939775195904076
11	37	84	n/a	n/a	n/a	j	4	0.03000000000000003	1	j	1	0.3688703081570566
11	38	84	n/a	n/a	n/a	f	4	0.02000000000000002	1	f	1	0.3899177145212889
11	39	84	n/a	n/a	n/a	j	4	0.01000000000000002	1	j	1	0.3740553972311318
11	40	84	n/a	n/a	n/a	j	4	2.42861286636753e-17	0	j	1	0.3896554242819548
11	41	64	n/a	n/a	n/a	j	4	0.01000000000000002	1	j	1	0.4449942093342543
11	42	84	n/a	n/a	n/a	j	4	2.42861286636753e-17	2	j	1	0.4507939713075757
11	43	104	n/a	n/a	n/a	j	4	0.01000000000000002	2	j	1	0.3387935422360897
11	44	104	n/a	n/a	n/a	f	4	0.02000000000000002	0	f	1	0.4027739525772631
11	45	64	n/a	n/a	n/a	j	4	0.03000000000000003	1	j	1	0.4017615672200918
11	46	84	n/a	n/a	n/a	j	4	0.02000000000000002	1	j	1	0.4156410247087479
11	47	84	n/a	n/a	n/a	j	4	0.01000000000000002	2	j	1	0.4076619688421488
11	48	104	n/a	n/a	n/a	j	4	0.02000000000000002	2	j	1	0.3746657930314541
11	49	104	n/a	n/a	n/a	j	4	0.03000000000000003	1	j	1	0.3733181320130825
11	50	84	n/a	n/a	n/a	f	4	0.02000000000000002	1	f	1	0.3636578493751585
11	51	84	n/a	n/a	n/a	j	4	0.01000000000000002	0	j	1	0.3956077131442726
11	52	64	n/a	n/a	n/a	j	4	0.02000000000000002	1	j	1	0.4115926241502166
11	53	84	n/a	n/a	n/a	j	4	0.01000000000000002	2	j	1	0.3865290326066315
11	54	104	n/a	n/a	n/a	j	4	0.02000000000000002	1	j	1	0.3865090752951801
11	55	84	n/a	n/a	n/a	j	4	0.01000000000000002	1	j	1	0.3615367161110044
11	56	84	n/a	n/a	n/a	f	4	2.42861286636753e-17	0	f	1	0.4094903063960373
11	57	64	n/a	n/a	n/a	j	4	0.01000000000000002	2	j	1	0.4162685265764594
11	58	104	n/a	n/a	n/a	j	4	0.02000000000000002	2	j	1	0.3914803406223655
11	59	104	n/a	n/a	n/a	j	4	0.03000000000000003	1	j	1	0.3994020912796259
11	60	84	n/a	n/a	n/a	j	4	0.02000000000000002	1	j	1	0.4224238060414791
11	61	84	n/a	n/a	n/a	j	4	0.01000000000000002	2	j	1	0.349424300249666
11	62	104	n/a	n/a	n/a	f	4	0.02000000000000002	0	f	1	0.8685204917564988
11	63	64	n/a	n/a	n/a	j	4	0.03000000000000003	2	j	1	0.4284516465850174
11	64	104	n/a	n/a	n/a	j	4	0.04000000000000003	2	j	1	0.3872540383599699
11	65	104	n/a	n/a	n/a	j	4	0.05000000000000003	1	j	1	0.3862159941345453
11	66	84	n/a	n/a	n/a	j	4	0.04000000000000003	1	j	1	0.441765752620995
11	67	84	n/a	n/a	n/a	j	4	0.03000000000000003	2	j	1	0.4171808422543108
11	68	104	n/a	n/a	n/a	f	4	0.04000000000000003	1	f	1	0.4161524912342429
11	69	84	n/a	n/a	n/a	j	4	0.03000000000000003	2	j	1	0.4311392712406814
11	70	104	n/a	n/a	n/a	j	4	0.04000000000000003	2	j	1	0.3689110772684216
11	71	104	n/a	n/a	n/a	j	4	0.05000000000000003	1	j	1	0.3680247054435313
12	0	86	j	1	0.9875380536541343	j	6	0.06000000000000002	0	j	1	0.6094864290207624
12	1	66	n/a	n/a	n/a	f	6	0.07000000000000002	1	f	1	0.7028143228963017
12	2	86	n/a	n/a	n/a	j	6	0.06000000000000002	2	j	1	0.6227406645193696
12	3	106	n/a	n/a	n/a	j	6	0.07000000000000002	1	j	1	0.5747357564978302
12	4	86	n/a	n/a	n/a	j	6	0.06000000000000002	1	j	1	0.5827113906852901
12	5	86	n/a	n/a	n/a	f	6	0.05000000000000002	1	f	1	0.6133210058324039
12	6	86	n/a	n/a	n/a	j	6	0.04000000000000001	1	j	1	0.5476870234124362
12	7	86	n/a	n/a	n/a	j	6	0.03000000000000001	0	j	1	0.5316077452152967
12	8	66	n/a	n/a	n/a	j	6	0.04000000000000001	0	j	1	0.5625620447099209
12	9	66	n/a	n/a	n/a	f	6	0.05000000000000002	1	f	1	0.6181976180523634
12	10	86	n/a	n/a	n/a	j	6	0.04000000000000001	1	j	1	0.5204618140123785
12	11	86	n/a	n/a	n/a	j	6	0.03000000000000001	0	j	1	0.5888236202299595
12	12	66	n/a	n/a	n/a	j	6	0.04000000000000001	1	j	1	0.5617948439903557
12	13	86	n/a	n/a	n/a	f	6	0.03000000000000001	1	f	1	0.5134121803566813
12	14	86	n/a	n/a	n/a	j	6	0.02000000000000001	0	j	1	0.5843492820858955
12	15	66	n/a	n/a	n/a	j	6	0.03000000000000001	1	j	1	0.5753142214380205
12	16	86	n/a	n/a	n/a	j	6	0.02000000000000001	1	j	1	0.5181949948891997
12	17	86	n/a	n/a	n/a	f	6	0.01000000000000001	0	f	1	0.5893279598094523
12	18	66	n/a	n/a	n/a	j	6	0.02000000000000001	1	j	1	0.6294245170429349
12	19	86	n/a	n/a	n/a	j	6	0.01000000000000001	2	j	1	0.604209253564477
12	20	106	n/a	n/a	n/a	j	6	0.02000000000000001	1	j	1	0.5871466700918972
12	21	86	n/a	n/a	n/a	f	6	0.01000000000000001	1	f	1	0.5631422204896808
12	22	86	n/a	n/a	n/a	j	6	1.040834085586084e-17	0	j	1	0.5542668150737882
12	23	66	n/a	n/a	n/a	j	6	0.01000000000000001	0	j	1	0.6147530563175678
12	24	66	n/a	n/a	n/a	j	6	0.02000000000000001	2	j	1	0.5812265970744193
12	25	106	n/a	n/a	n/a	f	6	0.03000000000000001	1	f	1	0.6197551116347313
12	26	86	n/a	n/a	n/a	j	6	0.02000000000000001	2	j	1	0.6019906159490347
12	27	106	n/a	n/a	n/a	j	6	0.03000000000000001	1	j	1	0.5859580938704312
12	28	86	n/a	n/a	n/a	j	6	0.02000000000000001	1	j	1	0.5589301730506122
12	29	86	n/a	n/a	n/a	f	6	0.01000000000000001	0	f	1	0.5978814889676869
12	30	66	n/a	n/a	n/a	j	6	0.02000000000000001	1	j	1	0.5787701872177422
12	31	86	n/a	n/a	n/a	j	6	0.01000000000000001	1	j	1	0.5288000940345228
12	32	86	n/a	n/a	n/a	j	6	1.040834085586084e-17	0	j	1	0.5517579466104507
12	33	66	n/a	n/a	n/a	f	6	0.01000000000000001	0	f	1	0.5747699681669474
12	34	66	n/a	n/a	n/a	j	6	0.02000000000000001	1	j	1	0.5347133246250451
12	35	86	n/a	n/a	n/a	j	6	0.01000000000000001	0	j	1	0.5656807385385036
12	36	66	n/a	n/a	n/a	j	6	0.02000000000000001	0	j	1	0.5546391536481678
12	37	66	n/a	n/a	n/a	f	6	0.03000000000000001	0	f	1	0.5705907074734569
12	38	66	n/a	n/a	n/a	j	6	0.04000000000000001	1	j	1	0.6655296930111945
12	39	86	n/a	n/a	n/a	j	6	0.03000000000000001	2	j	1	0.6001848010346293
12	40	106	n/a	n/a	n/a	j	6	0.04000000000000001	1	j	1	0.5194936194457114
12	41	86	n/a	n/a	n/a	f	6	0.03000000000000001	0	f	1	0.5734610804356635
12	42	66	n/a	n/a	n/a	j	6	0.04000000000000001	1	j	1	0.6195965968072414
12	43	86	n/a	n/a	n/a	j	6	0.03000000000000001	2	j	1	0.5703751724213362
12	44	106	n/a	n/a	n/a	j	6	0.04000000000000001	1	j	1	0.6333178239874542
12	45	86	n/a	n/a	n/a	f	6	0.03000000000000001	2	f	1	1.654333014506847
12	46	106	n/a	n/a	n/a	j	6	0.04000000000000001	2	j	1	0.5964012569747865
12	47	106	n/a	n/a	n/a	j	6	0.05000000000000002	1	j	1	0.6522349738515913
12	48	86	n/a	n/a	n/a	j	6	0.04000000000000001	2	j	1	0.56411640252918
12	49	106	n/a	n/a	n/a	f	6	0.05000000000000002	1	f	1	0.5711361011490226
12	50	86	n/a	n/a	n/a	j	6	0.04000000000000001	1	j	1	0.603093377314508
12	51	86	n/a	n/a	n/a	j	6	0.03000000000000001	1	j	1	0.6110533312894404
12	52	86	n/a	n/a	n/a	j	6	0.02000000000000001	2	j	1	0.5599220311269164
12	53	106	n/a	n/a	n/a	f	6	0.03000000000000001	1	f	1	0.5839458676055074
12	54	86	n/a	n/a	n/a	j	6	0.02000000000000001	1	j	1	0.5839817901141942
12	55	86	n/a	n/a	n/a	j	6	0.01000000000000001	1	j	1	0.5829249294474721
12	56	86	n/a	n/a	n/a	j	6	1.040834085586084e-17	2	j	1	0.5978592513129115
12	57	106	n/a	n/a	n/a	f	6	0.01000000000000001	2	f	1	0.570856133941561
12	58	106	n/a	n/a	n/a	j	6	0.02000000000000001	1	j	1	0.5778099750168622
12	59	86	n/a	n/a	n/a	j	6	0.01000000000000001	1	j	1	0.5537496455945075
12	60	86	n/a	n/a	n/a	j	6	1.040834085586084e-17	0	j	1	0.5927594066597521
12	61	66	n/a	n/a	n/a	f	6	0.01000000000000001	1	f	1	0.5916862953454256
12	62	86	n/a	n/a	n/a	j	6	1.040834085586084e-17	2	j	1	0.5676718675531447
12	63	106	n/a	n/a	n/a	j	6	0.01000000000000001	0	j	1	0.5356401801109314
12	64	66	n/a	n/a	n/a	j	6	0.02000000000000001	0	j	1	0.6145905498415232
12	65	66	n/a	n/a	n/a	f	6	0.03000000000000001	2	f	1	0.5665206392295659
12	66	106	n/a	n/a	n/a	j	6	0.04000000000000001	1	j	1	0.5182423209771514
12	67	86	n/a	n/a	n/a	j	6	0.03000000000000001	0	j	1	0.5566528053022921
12	68	66	n/a	n/a	n/a	j	6	0.04000000000000001	1	j	1	0.5885134330019355
12	69	86	n/a	n/a	n/a	f	6	0.03000000000000001	1	f	1	0.5566177377477288
12	70	86	n/a	n/a	n/a	j	6	0.02000000000000001	0	j	1	0.5875914241187274
12	71	66	n/a	n/a	n/a	j	6	0.03000000000000001	1	j	1	0.6103947530500591
13	0	92	j	1	1.617219159379601	j	12	0.02000000000000001	0	j	1	0.9714000453241169
13	1	72	n/a	n/a	n/a	j	12	0.03000000000000001	0	f	0	0.9533404721878469
13	2	132	n/a	n/a	n/a	f	12	0.02000000000000001	0	j	0	0.9522876031696796
13	3	132	n/a	n/a	n/a	j	12	0.03000000000000001	1	j	1	0.9902023002505302
13	4	92	n/a	n/a	n/a	j	12	0.02000000000000001	1	j	1	0.9891260527074337
13	5	92	n/a	n/a	n/a	j	12	0.01000000000000001	1	j	1	0.9413412408903241
13	6	92	n/a	n/a	n/a	j	12	1.040834085586084e-17	0	j	1	0.9172532567754388
13	7	72	n/a	n/a	n/a	j	12	0.01000000000000001	0	j	1	0.9950053570792079
13	8	72	n/a	n/a	n/a	f	12	0.02000000000000001	1	f	1	0.9455512925051153
13	9	92	n/a	n/a	n/a	j	12	0.01000000000000001	0	j	1	0.95286606810987
13	10	72	n/a	n/a	n/a	j	12	0.02000000000000001	0	j	1	1.000855010934174
13	11	72	n/a	n/a	n/a	j	12	0.03000000000000001	1	j	1	1.045793398283422
13	12	92	n/a	n/a	n/a	j	12	0.02000000000000001	2	j	1	1.003910127561539
13	13	112	n/a	n/a	n/a	j	12	0.03000000000000001	1	j	1	0.9222456193529069
13	14	92	n/a	n/a	n/a	f	12	0.02000000000000001	0	f	1	0.9376295418478549
13	15	72	n/a	n/a	n/a	j	12	0.03000000000000001	0	j	1	0.9845530712045729
13	16	72	n/a	n/a	n/a	j	12	0.04000000000000001	1	j	1	0.9844786603935063
13	17	92	n/a	n/a	n/a	j	12	0.03000000000000001	1	j	1	0.959450991358608
13	18	92	n/a	n/a	n/a	j	12	0.02000000000000001	0	j	1	0.9813807783648372
13	19	72	n/a	n/a	n/a	j	12	0.03000000000000001	1	j	1	0.9230587207712233
13	20	92	n/a	n/a	n/a	f	12	0.02000000000000001	0	f	1	0.9922185176983476
13	21	72	n/a	n/a	n/a	j	12	0.03000000000000001	1	j	1	0.9672122313641012
13	22	92	n/a	n/a	n/a	j	12	0.02000000000000001	1	j	1	0.9991404279135168
13	23	92	n/a	n/a	n/a	j	12	0.01000000000000001	2	j	1	1.0061398842372
13	24	112	n/a	n/a	n/a	j	12	0.02000000000000001	2	j	1	0.9092496833764017
13	25	112	n/a	n/a	n/a	j	12	0.03000000000000001	0	j	1	0.8599384529516101
13	26	72	n/a	n/a	n/a	f	12	0.04000000000000001	0	f	1	0.9798988355323672
13	27	72	n/a	n/a	n/a	j	12	0.05000000000000002	1	j	1	1.050812559202313
13	28	92	n/a	n/a	n/a	j	12	0.04000000000000001	2	j	1	1.002812212798744
13	29	112	n/a	n/a	n/a	j	12	0.05000000000000002	1	j	1	0.9374091601930559
13	30	92	n/a	n/a	n/a	j	12	0.04000000000000001	0	j	1	0.9447302082553506
13	31	72	n/a	n/a	n/a	j	12	0.05000000000000002	1	j	1	0.8959954474121332
13	32	92	n/a	n/a	n/a	f	12	0.04000000000000001	0	f	1	1.093760958407074
13	33	72	n/a	n/a	n/a	j	12	0.05000000000000002	2	j	1	1.100751576945186
13	34	112	n/a	n/a	n/a	j	12	0.06000000000000002	2	j	1	0.947604572866112
13	35	112	n/a	n/a	n/a	j	12	0.07000000000000002	1	j	1	0.9703497416339815
13	36	92	n/a	n/a	n/a	j	12	0.06000000000000002	1	j	1	1.137338569853455
13	37	92	n/a	n/a	n/a	j	12	0.05000000000000002	2	j	1	0.9612471126019955
13	38	112	n/a	n/a	n/a	f	12	0.06000000000000002	1	f	1	1.064000937622041
13	39	92	n/a	n/a	n/a	j	12	0.05000000000000002	2	j	1	1.031218871008605
13	40	112	n/a	n/a	n/a	j	12	0.06000000000000002	1	j	1	0.9661091845482588
13	41	92	n/a	n/a	n/a	j	12	0.05000000000000002	1	j	1	0.9819250316359103
13	42	92	n/a	n/a	n/a	j	12	0.04000000000000001	1	j	1	0.8676965567283332
13	43	92	n/a	n/a	n/a	j	12	0.03000000000000001	0	j	1	0.9209746499545872
13	44	72	n/a	n/a	n/a	f	12	0.04000000000000001	0	f	1	0.9288581968285143
13	45	72	n/a	n/a	n/a	j	12	0.05000000000000002	0	j	1	0.9288599076680839
13	46	72	n/a	n/a	n/a	j	12	0.06000000000000002	1	j	1	1.03276752633974
13	47	92	n/a	n/a	n/a	j	12	0.05000000000000002	1	j	1	0.9997436963021755
13	48	92	n/a	n/a	n/a	j	12	0.04000000000000001	1	j	1	0.9753212919458747
13	49	92	n/a	n/a	n/a	j	12	0.03000000000000001	1	j	1	0.9728306704200804
13	50	92	n/a	n/a	n/a	f	12	0.02000000000000001	1	f	1	1.034518887288868
13	51	92	n/a	n/a	n/a	j	12	0.01000000000000001	2	j	1	1.001470538787544
13	52	112	n/a	n/a	n/a	j	12	0.02000000000000001	1	j	1	0.9584257765673101
13	53	92	n/a	n/a	n/a	j	12	0.01000000000000001	0	j	1	1.085534722544253
13	54	72	n/a	n/a	n/a	j	12	0.02000000000000001	2	j	1	1.036534249782562
13	55	112	n/a	n/a	n/a	j	12	0.03000000000000001	2	j	1	1.034249184187502
13	56	112	n/a	n/a	n/a	f	12	0.04000000000000001	2	f	1	0.9452066081576049
13	57	112	n/a	n/a	n/a	j	12	0.05000000000000002	1	j	1	0.8811515020206571
13	58	92	n/a	n/a	n/a	j	12	0.04000000000000001	0	j	1	0.9611792592331767
13	59	72	n/a	n/a	n/a	j	12	0.05000000000000002	1	j	1	0.7721993480809033
13	60	92	n/a	n/a	n/a	j	12	0.04000000000000001	0	j	1	1.025621243752539
13	61	72	n/a	n/a	n/a	j	12	0.05000000000000002	1	j	1	0.8785807676613331
13	62	92	n/a	n/a	n/a	f	12	0.04000000000000001	0	f	1	0.9819307331927121
13	63	72	n/a	n/a	n/a	j	12	0.05000000000000002	1	j	1	0.8848452395759523
13	64	92	n/a	n/a	n/a	j	12	0.04000000000000001	0	j	1	0.874795513227582
13	65	72	n/a	n/a	n/a	j	12	0.05000000000000002	0	j	1	0.9917255821637809
13	66	72	n/a	n/a	n/a	j	12	0.06000000000000002	1	j	1	1.006523911841214
13	67	92	n/a	n/a	n/a	j	12	0.05000000000000002	1	j	1	0.8852646201848984
13	68	92	n/a	n/a	n/a	f	12	0.04000000000000001	1	j	0	0.9157222774811089
13	69	132	n/a	n/a	n/a	j	12	0.05000000000000002	0	j	1	0.9461978957988322
13	70	72	n/a	n/a	n/a	j	12	0.06000000000000002	1	j	1	0.9770774994976819
13	71	92	n/a	n/a	n/a	j	12	0.05000000000000002	1	j	1	0.9184118979610503
14	0	81	f	1	2.31917961128056	f	1	0.2000000000000001	2	f	1	0.5004957863129675
14	1	101	n/a	n/a	n/a	j	1	0.2100000000000001	1	j	1	0.4105049725621939
14	2	81	n/a	n/a	n/a	f	1	0.2000000000000001	1	f	1	0.5063611208461225
14	3	81	n/a	n/a	n/a	f	1	0.1900000000000001	1	f	1	0.4573175981640816
14	4	81	n/a	n/a	n/a	f	1	0.18	1	f	1	0.4892680323682725
14	5	81	n/a	n/a	n/a	j	1	0.17	1	j	1	0.4946695109829307
14	6	81	n/a	n/a	n/a	f	1	0.16	1	f	1	0.4852832085452974
14	7	81	n/a	n/a	n/a	f	1	0.15	1	f	1	0.4854693780653179
14	8	81	n/a	n/a	n/a	f	1	0.14	1	f	1	0.460367298219353
14	9	81	n/a	n/a	n/a	j	1	0.13	1	j	1	0.4518160494044423
14	10	81	n/a	n/a	n/a	f	1	0.12	1	f	1	0.4901005201973021
14	11	81	n/a	n/a	n/a	f	1	0.11	1	f	1	0.4661297118291259
14	12	81	n/a	n/a	n/a	f	1	0.1	1	f	1	0.4411373953334987
14	13	81	n/a	n/a	n/a	j	1	0.09000000000000002	1	j	1	0.4650759873911738
14	14	81	n/a	n/a	n/a	f	1	0.08000000000000003	2	f	1	0.4446546570397913
14	15	101	n/a	n/a	n/a	f	1	0.09000000000000002	1	f	1	0.5309266443364322
14	16	81	n/a	n/a	n/a	f	1	0.08000000000000003	2	f	1	0.4309972920455039
14	17	101	n/a	n/a	n/a	j	1	0.09000000000000002	1	j	1	0.4855859829112887
14	18	81	n/a	n/a	n/a	f	1	0.08000000000000003	2	f	1	0.4359491704963148
14	19	101	n/a	n/a	n/a	f	1	0.09000000000000002	1	f	1	0.4519563182257116
14	20	81	n/a	n/a	n/a	f	1	0.08000000000000003	1	f	1	0.3868161267600954
14	21	81	n/a	n/a	n/a	j	1	0.07000000000000003	1	j	1	0.4258746397681534
14	22	81	n/a	n/a	n/a	f	1	0.06000000000000003	1	f	1	0.4168210476636887
14	23	81	n/a	n/a	n/a	f	1	0.05000000000000003	1	f	1	0.4567944421432912
14	24	81	n/a	n/a	n/a	f	1	0.04000000000000003	2	f	1	0.4487412609159946
14	25	101	n/a	n/a	n/a	j	1	0.05000000000000003	2	j	1	0.3847428895533085
14	26	101	n/a	n/a	n/a	f	1	0.06000000000000003	1	f	1	0.4646771345287561
14	27	81	n/a	n/a	n/a	f	1	0.05000000000000003	2	f	1	0.3987107267603278
14	28	101	n/a	n/a	n/a	f	1	0.06000000000000003	1	f	1	0.4147133138030767
14	29	81	n/a	n/a	n/a	j	1	0.05000000000000003	1	j	1	0.3826391468755901
14	30	81	n/a	n/a	n/a	f	1	0.04000000000000003	1	f	1	0.3812772301025689
14	31	81	n/a	n/a	n/a	f	1	0.03000000000000003	1	f	1	0.4665986993350089
14	32	81	n/a	n/a	n/a	f	1	0.02000000000000002	2	f	1	0.4265585914254189
14	33	101	n/a	n/a	n/a	j	1	0.03000000000000003	2	j	1	0.4105329122394323
14	34	101	n/a	n/a	n/a	f	1	0.04000000000000003	1	f	1	0.4654779764823616
14	35	81	n/a	n/a	n/a	f	1	0.03000000000000003	2	f	1	0.4164025229401886
14	36	101	n/a	n/a	n/a	f	1	0.04000000000000003	1	f	1	0.4234641310758889
14	37	81	n/a	n/a	n/a	j	1	0.03000000000000003	2	j	1	0.3994154906831682
14	38	101	n/a	n/a	n/a	f	1	0.04000000000000003	1	f	1	0.4070333265699446
14	39	81	n/a	n/a	n/a	f	1	0.03000000000000003	1	f	1	0.3824204760603607
14	40	81	n/a	n/a	n/a	f	1	0.02000000000000002	1	f	1	0.3660352872684598
14	41	81	n/a	n/a	n/a	j	1	0.01000000000000002	0	j	1	0.3475072970613837
14	42	61	n/a	n/a	n/a	f	1	0.02000000000000002	0	f	1	0.4003258105367422
14	43	61	n/a	n/a	n/a	f	1	0.03000000000000003	1	f	1	0.398303035646677
14	44	81	n/a	n/a	n/a	f	1	0.02000000000000002	1	f	1	0.3662682129070163
14	45	81	n/a	n/a	n/a	j	1	0.01000000000000002	0	j	1	0.3969456809572875
14	46	61	n/a	n/a	n/a	f	1	0.02000000000000002	1	f	1	0.4524042080156505
14	47	81	n/a	n/a	n/a	f	1	0.01000000000000002	2	f	1	0.4022168698720634
14	48	101	n/a	n/a	n/a	f	1	0.02000000000000002	1	f	1	0.4732118467800319
14	49	81	n/a	n/a	n/a	j	1	0.01000000000000002	2	j	1	0.4567938721738756
14	50	101	n/a	n/a	n/a	f	1	0.02000000000000002	2	f	1	0.4551431508734822
14	51	101	n/a	n/a	n/a	f	1	0.03000000000000003	2	f	1	0.4231145996600389
14	52	101	n/a	n/a	n/a	f	1	0.04000000000000003	2	f	1	0.4289306122809649
14	53	101	n/a	n/a	n/a	j	1	0.05000000000000003	1	j	1	0.4110614848323166
14	54	81	n/a	n/a	n/a	f	1	0.04000000000000003	1	f	1	0.3940023230388761
14	55	81	n/a	n/a	n/a	f	1	0.03000000000000003	1	f	1	0.4810050181113183
14	56	81	n/a	n/a	n/a	f	1	0.02000000000000002	2	f	1	0.4089084202423692
14	57	101	n/a	n/a	n/a	j	1	0.03000000000000003	1	j	1	0.416984124109149
14	58	81	n/a	n/a	n/a	f	1	0.02000000000000002	2	f	1	0.4329556343145669
14	59	101	n/a	n/a	n/a	f	1	0.03000000000000003	2	f	1	0.3928958550095558
14	60	101	n/a	n/a	n/a	f	1	0.04000000000000003	1	f	1	0.3769041025079787
14	61	81	n/a	n/a	n/a	j	1	0.03000000000000003	1	j	1	0.3685470060445368
14	62	81	n/a	n/a	n/a	f	1	0.02000000000000002	1	f	1	0.3838348505087197
14	63	81	n/a	n/a	n/a	f	1	0.01000000000000002	1	f	1	0.4468202665448189
14	64	81	n/a	n/a	n/a	f	1	2.42861286636753e-17	2	f	1	0.4227396952919662
14	65	101	n/a	n/a	n/a	j	1	0.01000000000000002	2	j	1	0.3657433460466564
14	66	101	n/a	n/a	n/a	f	1	0.02000000000000002	1	f	1	0.4219251684844494
14	67	81	n/a	n/a	n/a	f	1	0.01000000000000002	2	f	1	0.3957411395385861
14	68	101	n/a	n/a	n/a	f	1	0.02000000000000002	1	f	1	0.4036988127045333
14	69	81	n/a	n/a	n/a	j	1	0.01000000000000002	2	j	1	0.3520127106457949
14	70	101	n/a	n/a	n/a	f	1	0.02000000000000002	0	f	1	0.3738153437152505
14	71	61	n/a	n/a	n/a	f	1	0.03000000000000003	1	f	1	0.4214117056690156
15	0	82	j	1	0.03096969472244382	j	2	0.02000000000000001	2	j	1	0.4977411632426083
15	1	102	n/a	n/a	n/a	f	2	0.03000000000000001	2	f	1	0.3756445366889238
15	2	102	n/a	n/a	n/a	j	2	0.04000000000000001	1	j	1	0.437831106595695
15	3	82	n/a	n/a	n/a	j	2	0.03000000000000001	2	j	1	0.4266435508616269
15	4	102	n/a	n/a	n/a	j	2	0.04000000000000001	2	j	1	0.4166260403580964
15	5	102	n/a	n/a	n/a	f	2	0.05000000000000002	1	f	1	0.4406088222749531
15	6	82	n/a	n/a	n/a	j	2	0.04000000000000001	2	j	1	0.4245449397712946
15	7	102	n/a	n/a	n/a	j	2	0.05000000000000002	1	j	1	0.408557178452611
15	8	82	n/a	n/a	n/a	j	2	0.04000000000000001	1	j	1	0.4241734561510384
15	9	82	n/a	n/a	n/a	f	2	0.03000000000000001	2	f	1	0.4141160319559276
15	10	102	n/a	n/a	n/a	j	2	0.04000000000000001	1	j	1	0.3885837383568287
15	11	82	n/a	n/a	n/a	j	2	0.03000000000000001	1	j	1	0.4286030335351825
15	12	82	n/a	n/a	n/a	j	2	0.02000000000000001	2	j	1	0.3885985631495714
15	13	102	n/a	n/a	n/a	f	2	0.03000000000000001	1	f	1	0.4273594333790243
15	14	82	n/a	n/a	n/a	j	2	0.02000000000000001	2	j	1	0.4183554486371577
15	15	102	n/a	n/a	n/a	j	2	0.03000000000000001	2	j	1	0.3863445739261806
15	16	102	n/a	n/a	n/a	j	2	0.04000000000000001	1	j	1	0.3523160559125245
15	17	82	n/a	n/a	n/a	f	2	0.03000000000000001	0	f	1	0.4229760421440005
15	18	62	n/a	n/a	n/a	j	2	0.04000000000000001	2	j	1	0.4370935559272766
15	19	102	n/a	n/a	n/a	j	2	0.05000000000000002	2	j	1	0.3804778135381639
15	20	102	n/a	n/a	n/a	j	2	0.06000000000000002	1	j	1	0.4434121972881258
15	21	82	n/a	n/a	n/a	f	2	0.05000000000000002	2	f	1	0.4031502828001976
15	22	102	n/a	n/a	n/a	j	2	0.06000000000000002	1	j	1	0.467157207429409
15	23	82	n/a	n/a	n/a	j	2	0.05000000000000002	2	j	1	0.3867371547967196
15	24	102	n/a	n/a	n/a	j	2	0.06000000000000002	1	j	1	0.4341604616492987
15	25	82	n/a	n/a	n/a	f	2	0.05000000000000002	1	f	1	0.4100904390215874
15	26	82	n/a	n/a	n/a	j	2	0.04000000000000001	1	j	1	0.4250649600289762
15	27	82	n/a	n/a	n/a	j	2	0.03000000000000001	2	j	1	0.392072775401175
15	28	102	n/a	n/a	n/a	j	2	0.04000000000000001	1	j	1	0.4470349457114935
15	29	82	n/a	n/a	n/a	f	2	0.03000000000000001	2	f	1	0.3830086346715689
15	30	102	n/a	n/a	n/a	j	2	0.04000000000000001	1	j	1	0.406987139955163
15	31	82	n/a	n/a	n/a	j	2	0.03000000000000001	1	j	1	0.438922178465873
15	32	82	n/a	n/a	n/a	j	2	0.02000000000000001	2	j	1	0.4223485398106277
15	33	102	n/a	n/a	n/a	f	2	0.03000000000000001	2	f	1	0.4456465151160955
15	34	102	n/a	n/a	n/a	j	2	0.04000000000000001	2	j	1	0.437022851780057
15	35	102	n/a	n/a	n/a	j	2	0.05000000000000002	2	j	1	0.4370265579782426
15	36	102	n/a	n/a	n/a	j	2	0.06000000000000002	1	j	1	0.395838072989136
15	37	82	n/a	n/a	n/a	f	2	0.05000000000000002	1	f	1	0.4438144713640213
15	38	82	n/a	n/a	n/a	j	2	0.04000000000000001	2	j	1	0.4198428080417216
15	39	102	n/a	n/a	n/a	j	2	0.05000000000000002	1	j	1	0.4437916637398303
15	40	82	n/a	n/a	n/a	j	2	0.04000000000000001	2	j	1	0.4197378917597234
15	41	102	n/a	n/a	n/a	f	2	0.05000000000000002	1	f	1	0.4116983953863382
15	42	82	n/a	n/a	n/a	j	2	0.04000000000000001	1	j	1	0.4576696949079633
15	43	82	n/a	n/a	n/a	j	2	0.03000000000000001	2	j	1	0.439654597081244
15	44	102	n/a	n/a	n/a	j	2	0.04000000000000001	2	j	1	0.4545624046586454
15	45	102	n/a	n/a	n/a	f	2	0.05000000000000002	2	f	1	0.4455148000270128
15	46	102	n/a	n/a	n/a	j	2	0.06000000000000002	2	j	1	0.485752766020596
15	47	102	n/a	n/a	n/a	j	2	0.07000000000000002	2	j	1	0.397724000737071
15	48	102	n/a	n/a	n/a	j	2	0.08000000000000002	1	j	1	0.4686827701516449
15	49	82	n/a	n/a	n/a	f	2	0.07000000000000002	2	f	1	0.4184783259406686
15	50	102	n/a	n/a	n/a	j	2	0.08000000000000002	1	j	1	0.4491121745668352
15	51	82	n/a	n/a	n/a	j	2	0.07000000000000002	1	j	1	0.4244260536506772
15	52	82	n/a	n/a	n/a	j	2	0.06000000000000002	1	j	1	0.4551015263423324
15	53	82	n/a	n/a	n/a	f	2	0.05000000000000002	2	f	1	0.462428561411798
15	54	102	n/a	n/a	n/a	j	2	0.06000000000000002	2	j	1	0.4685097155161202
15	55	102	n/a	n/a	n/a	j	2	0.07000000000000002	2	j	1	0.4823729218915105
15	56	102	n/a	n/a	n/a	j	2	0.08000000000000002	2	j	1	0.4422743683680892
15	57	102	n/a	n/a	n/a	f	2	0.09000000000000001	1	f	1	0.4823099146597087
15	58	82	n/a	n/a	n/a	j	2	0.08000000000000002	2	j	1	0.4092260198667645
15	59	102	n/a	n/a	n/a	j	2	0.09000000000000001	1	j	1	0.4562262403778732
15	60	82	n/a	n/a	n/a	j	2	0.08000000000000002	1	j	1	0.3761728242971003
15	61	82	n/a	n/a	n/a	f	2	0.07000000000000002	1	f	1	0.4397937254980206
15	62	82	n/a	n/a	n/a	j	2	0.06000000000000002	1	j	1	0.4551548399031162
15	63	82	n/a	n/a	n/a	j	2	0.05000000000000002	2	j	1	0.4131629471667111
15	64	102	n/a	n/a	n/a	j	2	0.06000000000000002	1	j	1	0.4052560213021934
15	65	82	n/a	n/a	n/a	f	2	0.05000000000000002	1	f	1	0.4030932635068893
15	66	82	n/a	n/a	n/a	j	2	0.04000000000000001	1	j	1	0.4100462486967444
15	67	82	n/a	n/a	n/a	j	2	0.03000000000000001	1	j	1	0.382990958634764
15	68	82	n/a	n/a	n/a	j	2	0.02000000000000001	1	j	1	0.4225666401907802
15	69	82	n/a	n/a	n/a	f	2	0.01000000000000001	2	f	1	0.4056195220910013
15	70	102	n/a	n/a	n/a	j	2	0.02000000000000001	2	j	1	0.4371833619661629
15	71	102	n/a	n/a	n/a	j	2	0.03000000000000001	2	j	1	0.3890789547003806
16	0	108	j	1	2.779574279207736	j	8	0.04000000000000001	0	j	1	0.5977834151126444
16	1	68	n/a	n/a	n/a	j	8	0.05000000000000002	1	j	1	0.555912118870765
16	2	88	n/a	n/a	n/a	f	8	0.04000000000000001	1	f	1	0.587727130856365
16	3	88	n/a	n/a	n/a	j	8	0.03000000000000001	1	j	1	0.5786709729582071
16	4	88	n/a	n/a	n/a	j	8	0.02000000000000001	1	j	1	0.5466375751420856
16	5	88	n/a	n/a	n/a	j	8	0.01000000000000001	0	j	1	0.5135704097338021
16	6	68	n/a	n/a	n/a	j	8	0.02000000000000001	0	j	1	0.5132049135863781
16	7	68	n/a	n/a	n/a	j	8	0.03000000000000001	0	j	1	0.5445515085011721
16	8	68	n/a	n/a	n/a	f	8	0.04000000000000001	1	f	1	0.527446445543319
16	9	88	n/a	n/a	n/a	j	8	0.03000000000000001	0	j	1	0.5435051964595914
16	10	68	n/a	n/a	n/a	j	8	0.04000000000000001	1	j	1	0.5414268276654184
16	11	88	n/a	n/a	n/a	j	8	0.03000000000000001	0	j	1	0.5325183505192399
16	12	68	n/a	n/a	n/a	j	8	0.04000000000000001	0	j	1	0.6045599249191582
16	13	68	n/a	n/a	n/a	j	8	0.05000000000000002	1	j	1	0.5725031490437686
16	14	88	n/a	n/a	n/a	f	8	0.04000000000000001	1	f	1	0.5692912274971604
16	15	88	n/a	n/a	n/a	j	8	0.03000000000000001	1	j	1	0.641246416606009
16	16	88	n/a	n/a	n/a	j	8	0.02000000000000001	2	j	1	0.5128080565482378
16	17	108	n/a	n/a	n/a	j	8	0.03000000000000001	0	j	1	0.5352384764701128
16	18	68	n/a	n/a	n/a	j	8	0.04000000000000001	0	j	1	0.6312118000350893
16	19	68	n/a	n/a	n/a	j	8	0.05000000000000002	1	j	1	0.5351472445763648
16	20	88	n/a	n/a	n/a	f	8	0.04000000000000001	0	f	1	0.5411682431586087
16	21	68	n/a	n/a	n/a	j	8	0.05000000000000002	1	j	1	0.5160958138294518
16	22	88	n/a	n/a	n/a	j	8	0.04000000000000001	0	j	1	0.5300719188526273
16	23	68	n/a	n/a	n/a	j	8	0.05000000000000002	0	j	1	0.5220307116396725
16	24	68	n/a	n/a	n/a	j	8	0.06000000000000002	0	j	1	0.4889986137859523
16	25	68	n/a	n/a	n/a	j	8	0.07000000000000002	0	j	1	0.5279952604323626
16	26	68	n/a	n/a	n/a	f	8	0.08000000000000002	1	f	1	0.4719249117188156
16	27	88	n/a	n/a	n/a	j	8	0.07000000000000002	0	j	1	0.4628713196143508
16	28	68	n/a	n/a	n/a	j	8	0.08000000000000002	0	j	1	0.5508712898008525
16	29	68	n/a	n/a	n/a	j	8	0.09000000000000001	1	j	1	0.574856068007648
16	30	88	n/a	n/a	n/a	j	8	0.08000000000000002	1	j	1	0.4868238815106452
16	31	88	n/a	n/a	n/a	j	8	0.07000000000000002	0	j	1	0.5809494811110198
16	32	68	n/a	n/a	n/a	f	8	0.08000000000000002	1	f	1	0.4907764890231192
16	33	88	n/a	n/a	n/a	j	8	0.07000000000000002	0	j	1	0.5787168736569583
16	34	68	n/a	n/a	n/a	j	8	0.08000000000000002	1	j	1	0.5216831765137613
16	35	88	n/a	n/a	n/a	j	8	0.07000000000000002	1	j	1	0.5686440537683666
16	36	88	n/a	n/a	n/a	j	8	0.06000000000000002	1	j	1	0.5606125402264297
16	37	88	n/a	n/a	n/a	j	8	0.05000000000000002	1	j	1	0.5355740375816822
16	38	88	n/a	n/a	n/a	f	8	0.04000000000000001	0	f	1	0.5111276847310364
16	39	68	n/a	n/a	n/a	j	8	0.05000000000000002	0	j	1	0.5745763862505555
16	40	68	n/a	n/a	n/a	j	8	0.06000000000000002	1	j	1	0.4912500376813114
16	41	88	n/a	n/a	n/a	j	8	0.05000000000000002	0	j	1	0.5304656401276588
16	42	68	n/a	n/a	n/a	j	8	0.06000000000000002	1	j	1	0.5454284716397524
16	43	88	n/a	n/a	n/a	j	8	0.05000000000000002	1	j	1	0.5134150311350822
16	44	88	n/a	n/a	n/a	f	8	0.04000000000000001	0	f	1	0.4889661124907434
16	45	68	n/a	n/a	n/a	j	8	0.05000000000000002	0	j	1	0.5513608045876026
16	46	68	n/a	n/a	n/a	j	8	0.06000000000000002	1	j	1	1.060442621354014
16	47	88	n/a	n/a	n/a	j	8	0.05000000000000002	2	j	1	0.5472263037227094
16	48	108	n/a	n/a	n/a	j	8	0.06000000000000002	1	j	1	0.6261661243624985
16	49	88	n/a	n/a	n/a	j	8	0.05000000000000002	1	j	1	0.5691173174418509
16	50	88	n/a	n/a	n/a	f	8	0.04000000000000001	1	f	1	0.5211503272876143
16	51	88	n/a	n/a	n/a	j	8	0.03000000000000001	0	j	1	0.5211352170445025
16	52	68	n/a	n/a	n/a	j	8	0.04000000000000001	0	j	1	0.5610458897426724
16	53	68	n/a	n/a	n/a	j	8	0.05000000000000002	1	j	1	0.5349479606375098
16	54	88	n/a	n/a	n/a	j	8	0.04000000000000001	0	j	1	0.5270016915164888
16	55	68	n/a	n/a	n/a	j	8	0.05000000000000002	0	j	1	0.4936097990721464
16	56	68	n/a	n/a	n/a	f	8	0.06000000000000002	0	f	1	0.556020456366241
16	57	68	n/a	n/a	n/a	j	8	0.07000000000000002	1	j	1	0.570927124004811
16	58	88	n/a	n/a	n/a	j	8	0.06000000000000002	1	j	1	0.5709342514164746
16	59	88	n/a	n/a	n/a	j	8	0.05000000000000002	1	j	1	0.5218451130203903
16	60	88	n/a	n/a	n/a	j	8	0.04000000000000001	0	j	1	0.5598501865752041
16	61	68	n/a	n/a	n/a	j	8	0.05000000000000002	1	j	1	0.5267798849381506
16	62	88	n/a	n/a	n/a	f	8	0.04000000000000001	0	f	1	0.5249558240175247
16	63	68	n/a	n/a	n/a	j	8	0.05000000000000002	0	j	1	0.5719494870863855
16	64	68	n/a	n/a	n/a	j	8	0.06000000000000002	1	j	1	0.5556652233935893
16	65	88	n/a	n/a	n/a	j	8	0.05000000000000002	1	j	1	0.554655403830111
16	66	88	n/a	n/a	n/a	j	8	0.04000000000000001	1	j	1	0.5692858104594052
16	67	88	n/a	n/a	n/a	j	8	0.03000000000000001	1	j	1	0.568648615386337
16	68	88	n/a	n/a	n/a	f	8	0.02000000000000001	1	f	1	0.5403893534094095
16	69	88	n/a	n/a	n/a	j	8	0.01000000000000001	0	j	1	0.6104757213033736
16	70	68	n/a	n/a	n/a	j	8	0.02000000000000001	2	j	1	0.538458950817585
16	71	108	n/a	n/a	n/a	j	8	0.03000000000000001	0	j	1	0.5704347584396601
17	0	65	f	1	1.009123726282269	f	5	0.04000000000000001	1	f	1	0.6071648709475994
17	1	85	n/a	n/a	n/a	j	5	0.03000000000000001	1	j	1	0.5573108131065965
17	2	85	n/a	n/a	n/a	f	5	0.02000000000000001	0	f	1	1.14116031723097
17	3	65	n/a	n/a	n/a	f	5	0.03000000000000001	2	f	1	0.5724150538444519
17	4	105	n/a	n/a	n/a	f	5	0.04000000000000001	1	f	1	0.5878913477063179
17	5	85	n/a	n/a	n/a	j	5	0.03000000000000001	1	j	1	0.6138869267888367
17	6	85	n/a	n/a	n/a	f	5	0.02000000000000001	2	f	1	0.5878494381904602
17	7	105	n/a	n/a	n/a	f	5	0.03000000000000001	1	f	1	0.5978179122321308
17	8	85	n/a	n/a	n/a	f	5	0.02000000000000001	1	f	1	0.5597683629021049
17	9	85	n/a	n/a	n/a	j	5	0.01000000000000001	0	j	1	0.5790202184580266
17	10	65	n/a	n/a	n/a	f	5	0.02000000000000001	1	f	1	0.6029853248037398
17	11	85	n/a	n/a	n/a	f	5	0.01000000000000001	2	f	1	0.5869681984186172
17	12	105	n/a	n/a	n/a	f	5	0.02000000000000001	1	f	1	0.593946557957679
17	13	85	n/a	n/a	n/a	j	5	0.01000000000000001	1	j	1	0.6168967126868665
17	14	85	n/a	n/a	n/a	f	5	1.040834085586084e-17	2	f	1	0.6408655252307653
17	15	105	n/a	n/a	n/a	f	5	0.01000000000000001	2	f	1	0.5594459166750312
17	16	105	n/a	n/a	n/a	f	5	0.02000000000000001	0	f	1	0.5739383352920413
17	17	65	n/a	n/a	n/a	j	5	0.03000000000000001	1	j	1	0.5659051113761961
17	18	85	n/a	n/a	n/a	f	5	0.02000000000000001	1	f	1	0.5808913209475577
17	19	85	n/a	n/a	n/a	f	5	0.01000000000000001	1	f	1	0.5873140227049589
17	20	85	n/a	n/a	n/a	f	5	1.040834085586084e-17	2	f	1	0.5866793934255838
17	21	105	n/a	n/a	n/a	j	5	0.01000000000000001	1	j	1	0.6816240814514458
17	22	85	n/a	n/a	n/a	f	5	1.040834085586084e-17	2	f	1	0.5605244445614517
17	23	105	n/a	n/a	n/a	f	5	0.01000000000000001	0	f	1	0.6085818111896515
17	24	65	n/a	n/a	n/a	f	5	0.02000000000000001	2	f	1	0.5511569590307772
17	25	105	n/a	n/a	n/a	j	5	0.03000000000000001	1	j	1	0.539266349747777
17	26	85	n/a	n/a	n/a	f	5	0.02000000000000001	0	f	1	0.6110889688134193
17	27	65	n/a	n/a	n/a	f	5	0.03000000000000001	1	f	1	0.5213920911774039
17	28	85	n/a	n/a	n/a	f	5	0.02000000000000001	0	f	1	0.5660128784365952
17	29	65	n/a	n/a	n/a	j	5	0.03000000000000001	1	j	1	1.061467836145312
17	30	85	n/a	n/a	n/a	f	5	0.02000000000000001	2	f	1	0.5724843321368098
17	31	105	n/a	n/a	n/a	f	5	0.03000000000000001	1	f	1	0.6114253848791122
17	32	85	n/a	n/a	n/a	f	5	0.02000000000000001	2	f	1	0.6032059914432466
17	33	105	n/a	n/a	n/a	j	5	0.03000000000000001	1	j	1	0.5616619884967804
17	34	85	n/a	n/a	n/a	f	5	0.02000000000000001	0	f	1	0.5760643160901964
17	35	65	n/a	n/a	n/a	f	5	0.03000000000000001	1	f	1	0.5600890987552702
17	36	85	n/a	n/a	n/a	f	5	0.02000000000000001	0	f	1	0.5906935823149979
17	37	65	n/a	n/a	n/a	j	5	0.03000000000000001	1	j	1	0.5578134418465197
17	38	85	n/a	n/a	n/a	f	5	0.02000000000000001	0	f	1	0.6300178072415292
17	39	65	n/a	n/a	n/a	f	5	0.03000000000000001	2	f	1	0.6045051859691739
17	40	105	n/a	n/a	n/a	f	5	0.04000000000000001	1	f	1	0.5639273817650974
17	41	85	n/a	n/a	n/a	j	5	0.03000000000000001	1	j	1	0.5718879061751068
17	42	85	n/a	n/a	n/a	f	5	0.02000000000000001	1	f	1	0.5788560016080737
17	43	85	n/a	n/a	n/a	f	5	0.01000000000000001	1	f	1	0.5227839425206184
17	44	85	n/a	n/a	n/a	f	5	1.040834085586084e-17	0	f	1	0.5537687470205128
17	45	65	n/a	n/a	n/a	j	5	0.01000000000000001	0	j	1	0.5758641767315567
17	46	65	n/a	n/a	n/a	f	5	0.02000000000000001	1	f	1	0.5969640417024493
17	47	85	n/a	n/a	n/a	f	5	0.01000000000000001	2	f	1	0.6129175913520157
17	48	105	n/a	n/a	n/a	f	5	0.02000000000000001	2	f	1	0.5878636934794486
17	49	105	n/a	n/a	n/a	j	5	0.03000000000000001	1	j	1	0.5946416282095015
17	50	85	n/a	n/a	n/a	f	5	0.02000000000000001	1	f	1	0.5936064352281392
17	51	85	n/a	n/a	n/a	f	5	0.01000000000000001	1	f	1	0.5685799065977335
17	52	85	n/a	n/a	n/a	f	5	1.040834085586084e-17	0	f	1	0.5924925548024476
17	53	65	n/a	n/a	n/a	j	5	0.01000000000000001	1	j	1	0.6405308195389807
17	54	85	n/a	n/a	n/a	f	5	1.040834085586084e-17	2	f	1	0.6204564538784325
17	55	105	n/a	n/a	n/a	f	5	0.01000000000000001	2	f	1	0.6104435049928725
17	56	105	n/a	n/a	n/a	f	5	0.02000000000000001	2	f	1	0.5544164916500449
17	57	105	n/a	n/a	n/a	j	5	0.03000000000000001	0	j	1	0.5133058386854827
17	58	65	n/a	n/a	n/a	f	5	0.04000000000000001	0	f	1	0.512959728948772
17	59	65	n/a	n/a	n/a	f	5	0.05000000000000002	0	f	1	0.5683124838396907
17	60	65	n/a	n/a	n/a	f	5	0.06000000000000002	1	f	1	0.5672422237694263
17	61	85	n/a	n/a	n/a	j	5	0.05000000000000002	1	j	1	0.6222691112197936
17	62	85	n/a	n/a	n/a	f	5	0.04000000000000001	2	f	1	0.5418701558373868
17	63	105	n/a	n/a	n/a	f	5	0.05000000000000002	1	f	1	0.596976300701499
17	64	85	n/a	n/a	n/a	f	5	0.04000000000000001	1	f	1	0.5493192132562399
17	65	85	n/a	n/a	n/a	j	5	0.03000000000000001	0	j	1	0.5728575261309743
17	66	65	n/a	n/a	n/a	f	5	0.04000000000000001	1	f	1	0.5888874824158847
17	67	85	n/a	n/a	n/a	f	5	0.03000000000000001	1	f	1	0.5402234261855483
17	68	85	n/a	n/a	n/a	f	5	0.02000000000000001	0	f	1	0.5560486814938486
17	69	65	n/a	n/a	n/a	j	5	0.03000000000000001	0	j	1	0.5640040733851492
17	70	65	n/a	n/a	n/a	f	5	0.04000000000000001	1	f	1	0.5468844706192613
17	71	85	n/a	n/a	n/a	f	5	0.03000000000000001	0	f	1	0.5468742069788277
18	0	63	f	1	0.4688632376492023	f	3	0.02000000000000002	2	f	1	0.4231385481543839
18	1	103	n/a	n/a	n/a	f	3	0.03000000000000003	2	f	1	0.4051759084686637
18	2	103	n/a	n/a	n/a	j	3	0.04000000000000003	1	j	1	0.3812344656325877
18	3	83	n/a	n/a	n/a	f	3	0.03000000000000003	1	f	1	0.4042607420124114
18	4	83	n/a	n/a	n/a	f	3	0.02000000000000002	1	f	1	0.4039881876669824
18	5	83	n/a	n/a	n/a	f	3	0.01000000000000002	2	f	1	0.3880015667527914
18	6	103	n/a	n/a	n/a	f	3	0.02000000000000002	1	f	1	0.3780071493238211
18	7	83	n/a	n/a	n/a	f	3	0.01000000000000002	1	f	1	0.3929773936979473
18	8	83	n/a	n/a	n/a	j	3	2.42861286636753e-17	2	j	1	0.3685626867227256
18	9	103	n/a	n/a	n/a	f	3	0.01000000000000002	0	f	1	0.3839434729889035
18	10	63	n/a	n/a	n/a	f	3	0.02000000000000002	1	f	1	0.4068810832686722
18	11	83	n/a	n/a	n/a	f	3	0.01000000000000002	2	f	1	0.3978548608720303
18	12	103	n/a	n/a	n/a	f	3	0.02000000000000002	1	f	1	0.3980102399364114
18	13	83	n/a	n/a	n/a	f	3	0.01000000000000002	2	f	1	0.3579430477693677
18	14	103	n/a	n/a	n/a	j	3	0.02000000000000002	0	j	1	0.3819406549446285
18	15	63	n/a	n/a	n/a	f	3	0.03000000000000003	1	f	1	0.4129174770787358
18	16	83	n/a	n/a	n/a	f	3	0.02000000000000002	2	f	1	0.3729235553182662
18	17	103	n/a	n/a	n/a	f	3	0.03000000000000003	1	f	1	0.3569509042426944
18	18	83	n/a	n/a	n/a	f	3	0.02000000000000002	0	f	1	0.3886128184385598
18	19	63	n/a	n/a	n/a	f	3	0.03000000000000003	1	f	1	0.3958537532016635
18	20	83	n/a	n/a	n/a	j	3	0.02000000000000002	1	j	1	0.4106269949115813
18	21	83	n/a	n/a	n/a	f	3	0.01000000000000002	2	f	1	0.4105446012690663
18	22	103	n/a	n/a	n/a	f	3	0.02000000000000002	2	f	1	0.4666083925403655
18	23	103	n/a	n/a	n/a	f	3	0.03000000000000003	2	f	1	0.409532215911895
18	24	103	n/a	n/a	n/a	f	3	0.04000000000000003	1	f	1	0.4012355604209006
18	25	83	n/a	n/a	n/a	f	3	0.03000000000000003	1	f	1	0.3685758011415601
18	26	83	n/a	n/a	n/a	j	3	0.02000000000000002	1	j	1	0.3684959732927382
18	27	83	n/a	n/a	n/a	f	3	0.01000000000000002	0	f	1	0.3978816601447761
18	28	63	n/a	n/a	n/a	f	3	0.02000000000000002	1	f	1	0.381652420386672
18	29	83	n/a	n/a	n/a	f	3	0.01000000000000002	1	f	1	0.3896229225210845
18	30	83	n/a	n/a	n/a	f	3	2.42861286636753e-17	2	f	1	0.3644738020375371
18	31	103	n/a	n/a	n/a	f	3	0.01000000000000002	0	f	1	0.3395553259178996
18	32	63	n/a	n/a	n/a	j	3	0.02000000000000002	0	j	1	0.3553902744315565
18	33	63	n/a	n/a	n/a	f	3	0.03000000000000003	0	f	1	0.4263963703997433
18	34	63	n/a	n/a	n/a	f	3	0.04000000000000003	2	f	1	0.4488045526668429
18	35	103	n/a	n/a	n/a	f	3	0.05000000000000003	2	f	1	0.3253500014543533
18	36	103	n/a	n/a	n/a	f	3	0.06000000000000003	0	f	1	0.4123008088208735
18	37	63	n/a	n/a	n/a	f	3	0.07000000000000003	1	f	1	0.3404599442146719
18	38	83	n/a	n/a	n/a	j	3	0.06000000000000003	1	j	1	0.3482608124613762
18	39	83	n/a	n/a	n/a	f	3	0.05000000000000003	1	f	1	0.3867953144945204
18	40	83	n/a	n/a	n/a	f	3	0.04000000000000003	1	f	1	0.3862259723246098
18	41	83	n/a	n/a	n/a	f	3	0.03000000000000003	1	f	1	0.3702188245952129
18	42	83	n/a	n/a	n/a	f	3	0.02000000000000002	1	f	1	0.3851674012839794
18	43	83	n/a	n/a	n/a	f	3	0.01000000000000002	1	f	1	0.359669319819659
18	44	83	n/a	n/a	n/a	j	3	2.42861286636753e-17	0	j	1	0.3911045803688467
18	45	63	n/a	n/a	n/a	f	3	0.01000000000000002	1	f	1	0.3901158580556512
18	46	83	n/a	n/a	n/a	f	3	2.42861286636753e-17	2	f	1	0.3738928907550871
18	47	103	n/a	n/a	n/a	f	3	0.01000000000000002	1	f	1	0.4050131174735725
18	48	83	n/a	n/a	n/a	f	3	2.42861286636753e-17	2	f	1	0.3879813249222934
18	49	103	n/a	n/a	n/a	f	3	0.01000000000000002	1	f	1	0.3539573685266078
18	50	83	n/a	n/a	n/a	j	3	2.42861286636753e-17	0	j	1	0.3770209928043187
18	51	63	n/a	n/a	n/a	f	3	0.01000000000000002	1	f	1	0.3999352254904807
18	52	83	n/a	n/a	n/a	f	3	2.42861286636753e-17	2	f	1	0.3829379300586879
18	53	103	n/a	n/a	n/a	f	3	0.01000000000000002	1	f	1	0.382901722099632
18	54	83	n/a	n/a	n/a	f	3	2.42861286636753e-17	2	f	1	0.3828566772863269
18	55	103	n/a	n/a	n/a	f	3	0.01000000000000002	1	f	1	0.3978118109516799
18	56	83	n/a	n/a	n/a	j	3	2.42861286636753e-17	2	j	1	0.3738367259502411
18	57	103	n/a	n/a	n/a	f	3	0.01000000000000002	1	f	1	0.3739869734272361
18	58	83	n/a	n/a	n/a	f	3	2.42861286636753e-17	0	f	1	0.4219188964925706
18	59	63	n/a	n/a	n/a	f	3	0.01000000000000002	2	f	1	0.3701823321171105
18	60	103	n/a	n/a	n/a	f	3	0.02000000000000002	1	f	1	0.4017336275428534
18	61	83	n/a	n/a	n/a	f	3	0.01000000000000002	2	f	1	0.3697384330444038
18	62	103	n/a	n/a	n/a	j	3	0.02000000000000002	1	j	1	0.3617462632246315
18	63	83	n/a	n/a	n/a	f	3	0.01000000000000002	0	f	1	0.4086703625507653
18	64	63	n/a	n/a	n/a	f	3	0.02000000000000002	2	f	1	0.3666662103496492
18	65	103	n/a	n/a	n/a	f	3	0.03000000000000003	1	f	1	0.3743293765000999
18	66	83	n/a	n/a	n/a	f	3	0.02000000000000002	1	f	1	0.3168104416690767
18	67	83	n/a	n/a	n/a	f	3	0.01000000000000002	0	f	1	0.3557241251692176
18	68	63	n/a	n/a	n/a	j	3	0.02000000000000002	0	j	1	0.3865609634667635
18	69	63	n/a	n/a	n/a	f	3	0.03000000000000003	1	f	1	0.3855542801320553
18	70	83	n/a	n/a	n/a	f	3	0.02000000000000002	1	f	1	0.3614916699007154
18	71	83	n/a	n/a	n/a	f	3	0.01000000000000002	0	f	1	0.368479723110795
19	0	67	f	1	0.4928169399499893	f	7	0.02000000000000001	0	f	1	0.5464950259774923
19	1	67	n/a	n/a	n/a	f	7	0.03000000000000001	0	f	1	0.5513995778746903
19	2	67	n/a	n/a	n/a	j	7	0.04000000000000001	1	j	1	0.574390216730535
19	3	87	n/a	n/a	n/a	f	7	0.03000000000000001	1	f	1	0.5724960216321051
19	4	87	n/a	n/a	n/a	f	7	0.02000000000000001	1	f	1	0.5964773781597614
19	5	87	n/a	n/a	n/a	f	7	0.01000000000000001	1	f	1	0.5703144464641809
19	6	87	n/a	n/a	n/a	f	7	1.040834085586084e-17	0	f	1	0.5772734191268682
19	7	67	n/a	n/a	n/a	f	7	0.01000000000000001	1	f	1	0.5532327620312572
19	8	87	n/a	n/a	n/a	j	7	1.040834085586084e-17	0	j	1	0.5041972221806645
19	9	67	n/a	n/a	n/a	f	7	0.01000000000000001	0	f	1	0.5351808867417276
19	10	67	n/a	n/a	n/a	f	7	0.02000000000000001	0	f	1	0.5643362132832408
19	11	67	n/a	n/a	n/a	f	7	0.03000000000000001	1	f	1	0.6026879670098424
19	12	87	n/a	n/a	n/a	f	7	0.02000000000000001	1	f	1	0.5600067055784166
19	13	87	n/a	n/a	n/a	f	7	0.01000000000000001	0	f	1	0.5196393048390746
19	14	67	n/a	n/a	n/a	j	7	0.02000000000000001	0	j	1	0.5830346923321486
19	15	67	n/a	n/a	n/a	f	7	0.03000000000000001	1	f	1	0.5409281901083887
19	16	87	n/a	n/a	n/a	f	7	0.02000000000000001	0	f	1	0.5469483328051865
19	17	67	n/a	n/a	n/a	f	7	0.03000000000000001	0	f	1	0.5469058528542519
19	18	67	n/a	n/a	n/a	f	7	0.04000000000000001	1	f	1	0.5858751302585006
19	19	87	n/a	n/a	n/a	f	7	0.03000000000000001	1	f	1	0.569869692903012
19	20	87	n/a	n/a	n/a	j	7	0.02000000000000001	1	j	1	0.5666591972112656
19	21	87	n/a	n/a	n/a	f	7	0.01000000000000001	0	f	1	0.5657905014231801
19	22	67	n/a	n/a	n/a	f	7	0.02000000000000001	1	f	1	0.5499144992791116
19	23	87	n/a	n/a	n/a	f	7	0.01000000000000001	0	f	1	0.5494552049785852
19	24	67	n/a	n/a	n/a	f	7	0.02000000000000001	0	f	1	0.5568210133351386
19	25	67	n/a	n/a	n/a	f	7	0.03000000000000001	1	f	1	0.4986306712962687
19	26	87	n/a	n/a	n/a	j	7	0.02000000000000001	0	j	1	0.5776414819993079
19	27	67	n/a	n/a	n/a	f	7	0.03000000000000001	1	f	1	0.5365063101053238
19	28	87	n/a	n/a	n/a	f	7	0.02000000000000001	0	f	1	0.584515780210495
19	29	67	n/a	n/a	n/a	f	7	0.03000000000000001	1	f	1	0.5685026445426047
19	30	87	n/a	n/a	n/a	f	7	0.02000000000000001	1	f	1	0.5664274119772017
19	31	87	n/a	n/a	n/a	f	7	0.01000000000000001	0	f	1	0.5486686178483069
19	32	67	n/a	n/a	n/a	j	7	0.02000000000000001	0	j	1	0.5886106514371932
19	33	67	n/a	n/a	n/a	f	7	0.03000000000000001	1	f	1	0.5475401976145804
19	34	87	n/a	n/a	n/a	f	7	0.02000000000000001	0	f	1	0.5553536107763648
19	35	67	n/a	n/a	n/a	f	7	0.03000000000000001	0	f	1	0.5303347795270383
19	36	67	n/a	n/a	n/a	f	7	0.04000000000000001	0	f	1	0.6232638205401599
19	37	67	n/a	n/a	n/a	f	7	0.05000000000000002	1	f	1	0.5422519030980766
19	38	87	n/a	n/a	n/a	j	7	0.04000000000000001	1	j	1	0.6302381884306669
19	39	87	n/a	n/a	n/a	f	7	0.03000000000000001	2	f	1	0.644819273147732
19	40	107	n/a	n/a	n/a	f	7	0.04000000000000001	2	f	1	0.5561407683417201
19	41	107	n/a	n/a	n/a	f	7	0.05000000000000002	1	f	1	0.5477238008752465
19	42	87	n/a	n/a	n/a	f	7	0.04000000000000001	1	f	1	0.5700478795915842
19	43	87	n/a	n/a	n/a	f	7	0.03000000000000001	1	f	1	0.5610416135750711
19	44	87	n/a	n/a	n/a	j	7	0.02000000000000001	0	j	1	0.5449942667037249
19	45	67	n/a	n/a	n/a	f	7	0.03000000000000001	0	f	1	0.5599528220482171
19	46	67	n/a	n/a	n/a	f	7	0.04000000000000001	1	f	1	0.5349399782717228
19	47	87	n/a	n/a	n/a	f	7	0.03000000000000001	0	f	1	0.5499133584089577
19	48	67	n/a	n/a	n/a	f	7	0.04000000000000001	1	f	1	0.55689314333722
19	49	87	n/a	n/a	n/a	f	7	0.03000000000000001	1	f	1	0.5410610460676253
19	50	87	n/a	n/a	n/a	j	7	0.02000000000000001	0	j	1	0.5558570949360728
19	51	67	n/a	n/a	n/a	f	7	0.03000000000000001	0	f	1	0.6587859699502587
19	52	67	n/a	n/a	n/a	f	7	0.04000000000000001	2	f	1	0.5787342647090554
19	53	107	n/a	n/a	n/a	f	7	0.05000000000000002	1	f	1	0.5067197750322521
19	54	87	n/a	n/a	n/a	f	7	0.04000000000000001	0	f	1	0.5373464957810938
19	55	67	n/a	n/a	n/a	f	7	0.05000000000000002	1	f	1	0.5836733132600784
19	56	87	n/a	n/a	n/a	j	7	0.04000000000000001	1	j	1	0.5906100482679904
19	57	87	n/a	n/a	n/a	f	7	0.03000000000000001	1	f	1	0.5412209858186543
19	58	87	n/a	n/a	n/a	f	7	0.02000000000000001	0	f	1	0.5385538884438574
19	59	67	n/a	n/a	n/a	f	7	0.03000000000000001	0	f	1	0.5694813886657357
19	60	67	n/a	n/a	n/a	f	7	0.04000000000000001	1	f	1	0.5424845432862639
19	61	87	n/a	n/a	n/a	f	7	0.03000000000000001	0	f	1	0.5255833258852363
19	62	67	n/a	n/a	n/a	j	7	0.04000000000000001	0	j	1	0.557179952505976
19	63	67	n/a	n/a	n/a	f	7	0.05000000000000002	1	f	1	0.5085113346576691
19	64	87	n/a	n/a	n/a	f	7	0.04000000000000001	0	f	1	1.02115859510377
19	65	67	n/a	n/a	n/a	f	7	0.05000000000000002	2	f	1	0.5414841324090958
19	66	107	n/a	n/a	n/a	f	7	0.06000000000000002	1	f	1	0.5634170556440949
19	67	87	n/a	n/a	n/a	f	7	0.05000000000000002	1	f	1	0.5062100188806653
19	68	87	n/a	n/a	n/a	j	7	0.04000000000000001	0	j	1	0.5458481372334063
19	69	67	n/a	n/a	n/a	f	7	0.05000000000000002	1	f	1	0.4951664377003908
19	70	87	n/a	n/a	n/a	f	7	0.04000000000000001	0	f	1	0.5191683215089142
19	71	67	n/a	n/a	n/a	f	7	0.05000000000000002	0	f	1	0.5500322449952364
20	0	70	j	1	0.85509263118729	j	10	0.06000000000000003	0	j	1	1.607368431054056
20	1	70	n/a	n/a	n/a	f	10	0.07000000000000003	2	f	1	0.9954013591632247
20	2	110	n/a	n/a	n/a	j	10	0.08000000000000003	1	j	1	0.9071667520329356
20	3	90	n/a	n/a	n/a	j	10	0.07000000000000003	0	j	1	0.8500697640702128
20	4	70	n/a	n/a	n/a	j	10	0.08000000000000003	0	j	1	0.8740799156948924
20	5	70	n/a	n/a	n/a	f	10	0.09000000000000002	0	f	1	1.025049906689674
20	6	70	n/a	n/a	n/a	j	10	0.1	1	j	1	1.040012453217059
20	7	90	n/a	n/a	n/a	j	10	0.09000000000000002	1	j	1	1.00567517336458
20	8	90	n/a	n/a	n/a	j	10	0.08000000000000003	1	j	1	1.012927512638271
20	9	90	n/a	n/a	n/a	f	10	0.07000000000000003	1	f	1	0.9720341046340764
20	10	90	n/a	n/a	n/a	j	10	0.06000000000000003	1	j	1	1.00275291223079
20	11	90	n/a	n/a	n/a	j	10	0.05000000000000003	1	j	1	0.9933081646449864
20	12	90	n/a	n/a	n/a	j	10	0.04000000000000003	1	j	1	1.032595612108707
20	13	90	n/a	n/a	n/a	f	10	0.03000000000000003	2	f	1	0.9685838408768177
20	14	110	n/a	n/a	n/a	j	10	0.04000000000000003	1	j	1	0.9674933389760554
20	15	90	n/a	n/a	n/a	j	10	0.03000000000000003	1	j	1	0.9190784585662186
20	16	90	n/a	n/a	n/a	j	10	0.02000000000000002	0	j	1	0.9573634988628328
20	17	70	n/a	n/a	n/a	f	10	0.03000000000000003	1	f	1	0.947840919252485
20	18	90	n/a	n/a	n/a	j	10	0.02000000000000002	0	j	1	0.9442968582734466
20	19	70	n/a	n/a	n/a	j	10	0.03000000000000003	0	j	1	0.9826420545578003
20	20	70	n/a	n/a	n/a	j	10	0.04000000000000003	1	j	1	1.075123490765691
20	21	90	n/a	n/a	n/a	f	10	0.03000000000000003	2	f	1	0.9621540112420917
