blockLoop_thisRepN	trialLoop_thisRepN	firstKey	readyKey_corr	readyKey_rt	targetKey	blockType	margin	outcome	trialResp_keys	trialResp_corr	trialResp_rt
0	0	j	1	5.042066063731909	j	12	0.1	0	j	1	1.054830427281559
0	1	n/a	n/a	n/a	j	12	0.11	1	j	1	0.9871680685319006
0	2	n/a	n/a	n/a	f	12	0.1	1	j	0	1.022815458476543
0	3	n/a	n/a	n/a	j	12	0.09000000000000001	1	j	1	1.099171849898994
0	4	n/a	n/a	n/a	j	12	0.08000000000000002	2	j	1	1.096984585747123
0	5	n/a	n/a	n/a	j	12	0.09000000000000001	2	j	1	1.030004464555532
0	6	n/a	n/a	n/a	j	12	0.1	1	j	1	1.178953682538122
0	7	n/a	n/a	n/a	j	12	0.09000000000000001	2	j	1	1.065102472435683
0	8	n/a	n/a	n/a	f	12	0.1	2	j	0	1.044879401102662
0	9	n/a	n/a	n/a	j	12	0.09000000000000001	1	j	1	1.139789906330407
0	10	n/a	n/a	n/a	j	12	0.08000000000000002	2	j	1	1.082672145683318
0	11	n/a	n/a	n/a	j	12	0.09000000000000001	2	j	1	1.09537948993966
0	12	n/a	n/a	n/a	j	12	0.1	2	j	1	1.108820958528668
0	13	n/a	n/a	n/a	j	12	0.11	2	j	1	1.01674317708239
0	14	n/a	n/a	n/a	f	12	0.12	2	j	0	0.9961440628394485
0	15	n/a	n/a	n/a	j	12	0.11	1	j	1	1.079434869345278
0	16	n/a	n/a	n/a	j	12	0.1	1	j	1	0.9963869652710855
0	17	n/a	n/a	n/a	j	12	0.09000000000000001	1	f	0	1.002368015702814
0	18	n/a	n/a	n/a	j	12	0.08000000000000002	1	j	1	1.062884132377803
0	19	n/a	n/a	n/a	j	12	0.07000000000000002	2	j	1	1.04222258226946
0	20	n/a	n/a	n/a	f	12	0.08000000000000002	2	j	0	0.999968069139868
0	21	n/a	n/a	n/a	j	12	0.07000000000000002	1	j	1	1.040262540336698
0	22	n/a	n/a	n/a	j	12	0.06000000000000002	1	j	1	1.036544590257108
0	23	n/a	n/a	n/a	j	12	0.05000000000000002	2	j	1	1.017082727514207
0	24	n/a	n/a	n/a	j	12	0.06000000000000002	1	j	1	1.067830565851182
0	25	n/a	n/a	n/a	j	12	0.05000000000000002	2	j	1	0.9359957212582231
0	26	n/a	n/a	n/a	f	12	0.06000000000000002	2	j	0	0.9817566424608231
0	27	n/a	n/a	n/a	j	12	0.05000000000000002	1	j	1	0.9887708839960396
0	28	n/a	n/a	n/a	j	12	0.04000000000000001	1	j	1	0.9607760682702065
0	29	n/a	n/a	n/a	j	12	0.03000000000000001	1	j	1	1.019656013231725
0	30	n/a	n/a	n/a	j	12	0.02000000000000001	2	j	1	1.058082528878003
0	31	n/a	n/a	n/a	j	12	0.03000000000000001	2	j	1	0.9252886180765927
0	32	n/a	n/a	n/a	f	12	0.04000000000000001	2	j	0	0.9565440881997347
0	33	n/a	n/a	n/a	j	12	0.05000000000000002	2	f	0	0.3643573997542262
0	34	n/a	n/a	n/a	j	12	0.04000000000000001	0	j	1	0.8054546471685171
0	35	n/a	n/a	n/a	j	12	0.05000000000000002	0	j	1	0.974445044528693
0	36	n/a	n/a	n/a	j	12	0.06000000000000002	1	j	1	1.05143919819966
0	37	n/a	n/a	n/a	j	12	0.05000000000000002	2	j	1	1.034203373361379
0	38	n/a	n/a	n/a	f	12	0.06000000000000002	2	j	0	1.034129533451051
0	39	n/a	n/a	n/a	j	12	0.05000000000000002	1	j	1	1.054056959226727
0	40	n/a	n/a	n/a	j	12	0.04000000000000001	2	j	1	1.017728472594172
0	41	n/a	n/a	n/a	j	12	0.05000000000000002	1	j	1	1.028920810669661
0	42	n/a	n/a	n/a	j	12	0.04000000000000001	2	j	1	1.033539667725563
0	43	n/a	n/a	n/a	j	12	0.05000000000000002	1	j	1	0.9417535406537354
0	44	n/a	n/a	n/a	f	12	0.04000000000000001	1	j	0	1.131803483702242
0	45	n/a	n/a	n/a	j	12	0.05000000000000002	1	f	0	0.4176511541008949
0	46	n/a	n/a	n/a	j	12	0.06000000000000002	0	j	1	0.7129301186650991
0	47	n/a	n/a	n/a	j	12	0.07000000000000002	0	j	1	1.072867089416832
0	48	n/a	n/a	n/a	j	12	0.08000000000000002	2	j	1	1.096440906170756
0	49	n/a	n/a	n/a	j	12	0.09000000000000001	2	j	1	1.021592677105218
0	50	n/a	n/a	n/a	f	12	0.1	2	j	0	0.9531979048624635
0	51	n/a	n/a	n/a	j	12	0.09000000000000001	1	j	1	1.079072510823607
0	52	n/a	n/a	n/a	j	12	0.08000000000000002	2	j	1	0.9939807471819222
0	53	n/a	n/a	n/a	j	12	0.09000000000000001	1	j	1	0.967283692676574
0	54	n/a	n/a	n/a	j	12	0.08000000000000002	1	j	1	1.016361717134714
0	55	n/a	n/a	n/a	j	12	0.07000000000000002	1	j	1	0.9991695121861994
0	56	n/a	n/a	n/a	f	12	0.06000000000000002	1	f	1	0.914132772013545
0	57	n/a	n/a	n/a	j	12	0.05000000000000002	0	j	1	0.9842144637368619
0	58	n/a	n/a	n/a	j	12	0.06000000000000002	1	j	1	0.9647494652308524
0	59	n/a	n/a	n/a	j	12	0.05000000000000002	1	j	1	0.8989239865913987
0	60	n/a	n/a	n/a	j	12	0.04000000000000001	0	j	1	0.9930305182933807
0	61	n/a	n/a	n/a	j	12	0.05000000000000002	0	f	0	0.9089260450564325
0	62	n/a	n/a	n/a	f	12	0.04000000000000001	0	j	0	0.9959473456256092
0	63	n/a	n/a	n/a	j	12	0.05000000000000002	1	j	1	1.016914235427976
0	64	n/a	n/a	n/a	j	12	0.04000000000000001	1	j	1	0.931675361469388
0	65	n/a	n/a	n/a	j	12	0.03000000000000001	0	j	1	0.9037666446529329
0	66	n/a	n/a	n/a	j	12	0.04000000000000001	0	j	1	0.9644951587542892
0	67	n/a	n/a	n/a	j	12	0.05000000000000002	1	j	1	0.955676537938416
0	68	n/a	n/a	n/a	f	12	0.04000000000000001	1	f	1	0.8895288999192417
0	69	n/a	n/a	n/a	j	12	0.03000000000000001	0	j	1	0.8539368188939989
0	70	n/a	n/a	n/a	j	12	0.04000000000000001	0	j	1	0.8432049122639
0	71	n/a	n/a	n/a	j	12	0.05000000000000002	0	j	1	0.8342976267449558
1	0	j	1	0.0079271225258708	j	6	0.1	2	j	1	0.6333264717832208
1	1	n/a	n/a	n/a	f	6	0.11	1	f	1	0.5994138973765075
1	2	n/a	n/a	n/a	j	6	0.1	1	j	1	0.5542206047102809
1	3	n/a	n/a	n/a	j	6	0.09000000000000001	1	j	1	0.5662363031879067
1	4	n/a	n/a	n/a	j	6	0.08000000000000002	1	j	1	0.5721697425469756
1	5	n/a	n/a	n/a	f	6	0.07000000000000002	1	f	1	0.5442684381268919
1	6	n/a	n/a	n/a	j	6	0.06000000000000002	1	j	1	0.6150819738395512
1	7	n/a	n/a	n/a	j	6	0.05000000000000002	1	j	1	0.5531936851330101
1	8	n/a	n/a	n/a	j	6	0.04000000000000001	1	j	1	0.5260330634191632
1	9	n/a	n/a	n/a	f	6	0.03000000000000001	0	f	1	0.584258995950222
1	10	n/a	n/a	n/a	j	6	0.04000000000000001	1	j	1	0.5749254897236824
1	11	n/a	n/a	n/a	j	6	0.03000000000000001	1	j	1	0.5619156579487026
1	12	n/a	n/a	n/a	j	6	0.02000000000000001	0	j	1	0.5939166569150984
1	13	n/a	n/a	n/a	f	6	0.03000000000000001	1	f	1	0.5718376040458679
1	14	n/a	n/a	n/a	j	6	0.02000000000000001	1	j	1	0.4990107133053243
1	15	n/a	n/a	n/a	j	6	0.01000000000000001	0	j	1	0.56388567853719
1	16	n/a	n/a	n/a	j	6	0.02000000000000001	0	j	1	2.202752440236509
1	17	n/a	n/a	n/a	f	6	0.03000000000000001	2	f	1	0.5596134997904301
1	18	n/a	n/a	n/a	j	6	0.04000000000000001	1	j	1	0.5895481151528656
1	19	n/a	n/a	n/a	j	6	0.03000000000000001	1	j	1	0.5373702310025692
1	20	n/a	n/a	n/a	j	6	0.02000000000000001	0	j	1	0.6083955937065184
1	21	n/a	n/a	n/a	f	6	0.03000000000000001	1	f	1	0.5735362120904028
1	22	n/a	n/a	n/a	j	6	0.02000000000000001	1	j	1	0.5313467010855675
1	23	n/a	n/a	n/a	j	6	0.01000000000000001	0	j	1	0.5464001088403165
1	24	n/a	n/a	n/a	j	6	0.02000000000000001	0	j	1	0.601433239877224
1	25	n/a	n/a	n/a	f	6	0.03000000000000001	1	f	1	0.5762340850196779
1	26	n/a	n/a	n/a	j	6	0.02000000000000001	1	j	1	0.5503983087837696
1	27	n/a	n/a	n/a	j	6	0.01000000000000001	0	j	1	0.5569110647775233
1	28	n/a	n/a	n/a	j	6	0.02000000000000001	0	j	1	0.586977110709995
1	29	n/a	n/a	n/a	f	6	0.03000000000000001	1	f	1	0.5561792212538421
1	30	n/a	n/a	n/a	j	6	0.02000000000000001	0	j	1	0.6212734254077077
1	31	n/a	n/a	n/a	j	6	0.03000000000000001	2	j	1	0.5691531309857965
1	32	n/a	n/a	n/a	j	6	0.04000000000000001	1	j	1	0.5901562278158963
1	33	n/a	n/a	n/a	f	6	0.03000000000000001	1	f	1	0.5380960879847407
1	34	n/a	n/a	n/a	j	6	0.02000000000000001	0	j	1	0.6161753213964403
1	35	n/a	n/a	n/a	j	6	0.03000000000000001	2	j	1	0.5700762746855617
1	36	n/a	n/a	n/a	j	6	0.04000000000000001	1	j	1	0.6070430935360491
1	37	n/a	n/a	n/a	f	6	0.03000000000000001	1	f	1	0.5174006107263267
1	38	n/a	n/a	n/a	j	6	0.02000000000000001	0	j	1	0.59360789693892
1	39	n/a	n/a	n/a	j	6	0.03000000000000001	1	j	1	0.576668287627399
1	40	n/a	n/a	n/a	j	6	0.02000000000000001	1	j	1	0.5873950631357729
1	41	n/a	n/a	n/a	f	6	0.01000000000000001	1	f	1	0.5209660339169204
1	42	n/a	n/a	n/a	j	6	1.040834085586084e-17	0	j	1	0.5359749658964574
1	43	n/a	n/a	n/a	j	6	0.01000000000000001	0	j	1	0.5733554605394602
1	44	n/a	n/a	n/a	j	6	0.02000000000000001	1	j	1	0.5377112068235874
1	45	n/a	n/a	n/a	f	6	0.01000000000000001	0	f	1	0.4813663442619145
1	46	n/a	n/a	n/a	j	6	0.02000000000000001	0	j	1	0.5057056467048824
1	47	n/a	n/a	n/a	j	6	0.03000000000000001	0	j	1	0.5438416479155421
1	48	n/a	n/a	n/a	j	6	0.04000000000000001	0	j	1	0.6425698874518275
1	49	n/a	n/a	n/a	f	6	0.05000000000000002	2	f	1	0.5906015490181744
1	50	n/a	n/a	n/a	j	6	0.06000000000000002	1	j	1	0.5473577496595681
1	51	n/a	n/a	n/a	j	6	0.05000000000000002	1	j	1	0.5823864787817001
1	52	n/a	n/a	n/a	j	6	0.04000000000000001	1	f	0	0.5595904067158699
1	53	n/a	n/a	n/a	f	6	0.03000000000000001	1	f	1	0.5884978184476495
1	54	n/a	n/a	n/a	j	6	0.02000000000000001	1	j	1	0.7205558936111629
1	55	n/a	n/a	n/a	j	6	0.01000000000000001	2	j	1	0.6233968283049762
1	56	n/a	n/a	n/a	j	6	0.02000000000000001	2	j	1	0.5953449932858348
1	57	n/a	n/a	n/a	f	6	0.03000000000000001	1	f	1	0.544456887524575
1	58	n/a	n/a	n/a	j	6	0.02000000000000001	0	j	1	0.569310219027102
1	59	n/a	n/a	n/a	j	6	0.03000000000000001	1	j	1	0.5764262406155467
1	60	n/a	n/a	n/a	j	6	0.02000000000000001	1	j	1	0.5772507409565151
1	61	n/a	n/a	n/a	f	6	0.01000000000000001	0	f	1	0.5191998579539359
1	62	n/a	n/a	n/a	j	6	0.02000000000000001	0	j	1	0.5491971950978041
1	63	n/a	n/a	n/a	j	6	0.03000000000000001	0	j	1	0.580080043990165
1	64	n/a	n/a	n/a	j	6	0.04000000000000001	1	j	1	0.5951174856163561
1	65	n/a	n/a	n/a	f	6	0.03000000000000001	1	f	1	0.4991273181512952
1	66	n/a	n/a	n/a	j	6	0.02000000000000001	0	j	1	0.5710430387407541
1	67	n/a	n/a	n/a	j	6	0.03000000000000001	1	j	1	0.5310071506537497
1	68	n/a	n/a	n/a	j	6	0.02000000000000001	0	j	1	0.6179862567223608
1	69	n/a	n/a	n/a	f	6	0.03000000000000001	1	f	1	0.5179924722760916
1	70	n/a	n/a	n/a	j	6	0.02000000000000001	0	j	1	0.5149422194808722
1	71	n/a	n/a	n/a	j	6	0.03000000000000001	0	j	1	0.5950068682432175
2	0	f	1	0.6823796932585537	f	5	0.1	1	f	1	0.6706995540298522
2	1	n/a	n/a	n/a	j	5	0.09000000000000001	1	j	1	0.5264384709298611
2	2	n/a	n/a	n/a	f	5	0.08000000000000002	1	f	1	0.5757759343832731
2	3	n/a	n/a	n/a	f	5	0.07000000000000002	1	f	1	0.590680805966258
2	4	n/a	n/a	n/a	f	5	0.06000000000000002	1	f	1	0.6214943761005998
2	5	n/a	n/a	n/a	j	5	0.05000000000000002	1	j	1	0.5375518375076354
2	6	n/a	n/a	n/a	f	5	0.04000000000000001	0	f	1	0.5824862630106509
2	7	n/a	n/a	n/a	f	5	0.05000000000000002	1	f	1	0.5885517015121877
2	8	n/a	n/a	n/a	f	5	0.04000000000000001	1	f	1	0.5526454434730113
2	9	n/a	n/a	n/a	j	5	0.03000000000000001	0	j	1	0.5832987888716161
2	10	n/a	n/a	n/a	f	5	0.04000000000000001	1	f	1	0.597375453915447
2	11	n/a	n/a	n/a	f	5	0.03000000000000001	1	f	1	0.5883033820427954
2	12	n/a	n/a	n/a	f	5	0.02000000000000001	1	f	1	0.5453626406379044
2	13	n/a	n/a	n/a	j	5	0.01000000000000001	0	j	1	0.5520034055225551
2	14	n/a	n/a	n/a	f	5	0.02000000000000001	0	f	1	0.598238727543503
2	15	n/a	n/a	n/a	f	5	0.03000000000000001	1	f	1	0.5877959094941616
2	16	n/a	n/a	n/a	f	5	0.02000000000000001	1	f	1	0.5854646707884967
2	17	n/a	n/a	n/a	j	5	0.01000000000000001	1	j	1	0.5541313691064715
2	18	n/a	n/a	n/a	f	5	1.040834085586084e-17	0	f	1	0.5922437077388167
2	19	n/a	n/a	n/a	f	5	0.01000000000000001	1	f	1	0.5528088044375181
2	20	n/a	n/a	n/a	f	5	1.040834085586084e-17	0	f	1	0.5740114687941968
2	21	n/a	n/a	n/a	j	5	0.01000000000000001	0	j	1	0.5499780760146677
2	22	n/a	n/a	n/a	f	5	0.02000000000000001	0	f	1	0.6439463356509805
2	23	n/a	n/a	n/a	f	5	0.03000000000000001	2	f	1	0.5717061744071543
2	24	n/a	n/a	n/a	f	5	0.04000000000000001	1	f	1	0.553272657096386
2	25	n/a	n/a	n/a	j	5	0.03000000000000001	0	j	1	0.5828925259411335
2	26	n/a	n/a	n/a	f	5	0.04000000000000001	1	f	1	0.5967585039325058
2	27	n/a	n/a	n/a	f	5	0.03000000000000001	1	f	1	0.602797428611666
2	28	n/a	n/a	n/a	f	5	0.02000000000000001	1	f	1	0.5888667334802449
2	29	n/a	n/a	n/a	j	5	0.01000000000000001	1	j	1	0.5417689927853644
2	30	n/a	n/a	n/a	f	5	1.040834085586084e-17	0	f	1	0.59655522974208
2	31	n/a	n/a	n/a	f	5	0.01000000000000001	1	f	1	0.5912450128234923
2	32	n/a	n/a	n/a	f	5	1.040834085586084e-17	2	f	1	0.5675671361386776
2	33	n/a	n/a	n/a	j	5	0.01000000000000001	0	j	1	0.5747290579602122
2	34	n/a	n/a	n/a	f	5	0.02000000000000001	1	f	1	0.5836831000633538
2	35	n/a	n/a	n/a	f	5	0.01000000000000001	1	f	1	0.5585771719925106
2	36	n/a	n/a	n/a	f	5	1.040834085586084e-17	0	f	1	0.6194661958143115
2	37	n/a	n/a	n/a	j	5	0.01000000000000001	2	j	1	0.5636567454785109
2	38	n/a	n/a	n/a	f	5	0.02000000000000001	0	f	1	0.5610224492847919
2	39	n/a	n/a	n/a	f	5	0.03000000000000001	1	f	1	0.56736557232216
2	40	n/a	n/a	n/a	f	5	0.02000000000000001	1	f	1	0.6184911639429629
2	41	n/a	n/a	n/a	j	5	0.01000000000000001	2	j	1	0.550391751807183
2	42	n/a	n/a	n/a	f	5	0.02000000000000001	0	f	1	0.4853103766217828
2	43	n/a	n/a	n/a	f	5	0.03000000000000001	0	f	1	0.6072443719021976
2	44	n/a	n/a	n/a	f	5	0.04000000000000001	1	f	1	0.6072004670277238
2	45	n/a	n/a	n/a	j	5	0.03000000000000001	1	j	1	0.4712285799905658
2	46	n/a	n/a	n/a	f	5	0.02000000000000001	0	f	1	0.6041587670333683
2	47	n/a	n/a	n/a	f	5	0.03000000000000001	1	f	1	0.5840383307076991
2	48	n/a	n/a	n/a	f	5	0.02000000000000001	1	f	1	0.5650976253673434
2	49	n/a	n/a	n/a	j	5	0.01000000000000001	0	j	1	0.5637442702427506
2	50	n/a	n/a	n/a	f	5	0.02000000000000001	0	f	1	0.5960754114203155
2	51	n/a	n/a	n/a	f	5	0.03000000000000001	1	f	1	0.5709301405586302
2	52	n/a	n/a	n/a	f	5	0.02000000000000001	1	f	1	0.6069048214703798
2	53	n/a	n/a	n/a	j	5	0.01000000000000001	2	j	1	0.5350193209014833
2	54	n/a	n/a	n/a	f	5	0.02000000000000001	0	f	1	0.5318829687312245
2	55	n/a	n/a	n/a	f	5	0.03000000000000001	0	f	1	0.5296346941031516
2	56	n/a	n/a	n/a	f	5	0.04000000000000001	0	f	1	0.5929861003533006
2	57	n/a	n/a	n/a	j	5	0.05000000000000002	1	j	1	0.4566427320241928
2	58	n/a	n/a	n/a	f	5	0.04000000000000001	0	f	1	0.6057208133861423
2	59	n/a	n/a	n/a	f	5	0.05000000000000002	1	f	1	0.5974470130167902
2	60	n/a	n/a	n/a	f	5	0.04000000000000001	1	f	1	0.5817207768559456
2	61	n/a	n/a	n/a	j	5	0.03000000000000001	1	j	1	0.5427283439785242
2	62	n/a	n/a	n/a	f	5	0.02000000000000001	0	f	1	0.5656569860875607
2	63	n/a	n/a	n/a	f	5	0.03000000000000001	1	f	1	0.5655911285430193
2	64	n/a	n/a	n/a	f	5	0.02000000000000001	0	f	1	0.5725845582783222
2	65	n/a	n/a	n/a	j	5	0.03000000000000001	1	j	1	0.5475815506651998
2	66	n/a	n/a	n/a	f	5	0.02000000000000001	0	f	1	0.5692774327471852
2	67	n/a	n/a	n/a	f	5	0.03000000000000001	1	f	1	0.5935246488079429
2	68	n/a	n/a	n/a	f	5	0.02000000000000001	1	f	1	0.5832608710043132
2	69	n/a	n/a	n/a	j	5	0.01000000000000001	1	j	1	0.5074247815646231
2	70	n/a	n/a	n/a	f	5	1.040834085586084e-17	0	f	1	0.5964460377581418
2	71	n/a	n/a	n/a	f	5	0.01000000000000001	1	f	1	0.5642865248955786
3	0	f	1	0.1025297227315605	f	3	0.1	2	f	1	0.4794291104190052
3	1	n/a	n/a	n/a	f	3	0.11	1	f	1	0.4214312555268407
3	2	n/a	n/a	n/a	j	3	0.1	1	j	1	0.4443921134807169
3	3	n/a	n/a	n/a	f	3	0.09000000000000001	1	f	1	0.4223501230590045
3	4	n/a	n/a	n/a	f	3	0.08000000000000002	1	f	1	0.4043456767685711
3	5	n/a	n/a	n/a	f	3	0.07000000000000002	1	f	1	0.40228585107252
3	6	n/a	n/a	n/a	f	3	0.06000000000000002	1	f	1	0.4424922270700336
3	7	n/a	n/a	n/a	f	3	0.05000000000000002	2	f	1	0.4244213527999818
3	8	n/a	n/a	n/a	j	3	0.06000000000000002	1	j	1	0.4072579424828291
3	9	n/a	n/a	n/a	f	3	0.05000000000000002	1	f	1	0.4462851574644446
3	10	n/a	n/a	n/a	f	3	0.04000000000000001	2	f	1	0.4122197711840272
3	11	n/a	n/a	n/a	f	3	0.05000000000000002	1	f	1	0.4151713806204498
3	12	n/a	n/a	n/a	f	3	0.04000000000000001	1	f	1	0.4358143997378647
3	13	n/a	n/a	n/a	f	3	0.03000000000000001	2	f	1	0.4252877626568079
3	14	n/a	n/a	n/a	j	3	0.04000000000000001	1	j	1	0.3726303451694548
3	15	n/a	n/a	n/a	f	3	0.03000000000000001	1	f	1	0.4402334028854966
3	16	n/a	n/a	n/a	f	3	0.02000000000000001	2	f	1	0.4151308964937925
3	17	n/a	n/a	n/a	f	3	0.03000000000000001	1	f	1	0.4287519762292504
3	18	n/a	n/a	n/a	f	3	0.02000000000000001	2	f	1	0.4028215482831001
3	19	n/a	n/a	n/a	f	3	0.03000000000000001	1	f	1	0.4385188296437263
3	20	n/a	n/a	n/a	j	3	0.02000000000000001	2	j	1	0.3590018525719643
3	21	n/a	n/a	n/a	f	3	0.03000000000000001	0	f	1	0.438922812230885
3	22	n/a	n/a	n/a	f	3	0.04000000000000001	2	f	1	0.4099059239961207
3	23	n/a	n/a	n/a	f	3	0.05000000000000002	1	f	1	0.4171827398240566
3	24	n/a	n/a	n/a	f	3	0.04000000000000001	1	f	1	0.4457645700313151
3	25	n/a	n/a	n/a	f	3	0.03000000000000001	2	f	1	0.3934586769901216
3	26	n/a	n/a	n/a	j	3	0.04000000000000001	1	j	1	0.3849947168491781
3	27	n/a	n/a	n/a	f	3	0.03000000000000001	1	f	1	0.4618104002438486
3	28	n/a	n/a	n/a	f	3	0.02000000000000001	2	f	1	0.3947139591909945
3	29	n/a	n/a	n/a	f	3	0.03000000000000001	1	f	1	0.3998576798476279
3	30	n/a	n/a	n/a	f	3	0.02000000000000001	1	f	1	0.4298367705196142
3	31	n/a	n/a	n/a	f	3	0.01000000000000001	2	f	1	0.4297637855634093
3	32	n/a	n/a	n/a	j	3	0.02000000000000001	2	j	1	0.3856458785012364
3	33	n/a	n/a	n/a	f	3	0.03000000000000001	1	f	1	0.4096866841427982
3	34	n/a	n/a	n/a	f	3	0.02000000000000001	2	f	1	0.4175895731896162
3	35	n/a	n/a	n/a	f	3	0.03000000000000001	2	f	1	0.402354558929801
3	36	n/a	n/a	n/a	f	3	0.04000000000000001	1	f	1	0.4345454326830804
3	37	n/a	n/a	n/a	f	3	0.03000000000000001	2	f	1	0.3855723240412772
3	38	n/a	n/a	n/a	j	3	0.04000000000000001	1	j	1	0.3945092596113682
3	39	n/a	n/a	n/a	f	3	0.03000000000000001	1	f	1	0.3926954725757241
3	40	n/a	n/a	n/a	f	3	0.02000000000000001	1	f	1	0.4219846287742257
3	41	n/a	n/a	n/a	f	3	0.01000000000000001	2	f	1	0.4279964691959321
3	42	n/a	n/a	n/a	f	3	0.02000000000000001	2	f	1	0.4274889966472983
3	43	n/a	n/a	n/a	f	3	0.03000000000000001	2	f	1	0.4024229827336967
3	44	n/a	n/a	n/a	j	3	0.04000000000000001	1	j	1	0.3715341468341649
3	45	n/a	n/a	n/a	f	3	0.03000000000000001	1	f	1	0.4340416663326323
3	46	n/a	n/a	n/a	f	3	0.02000000000000001	2	f	1	0.4034345066174865
3	47	n/a	n/a	n/a	f	3	0.03000000000000001	1	f	1	0.3833257588557899
3	48	n/a	n/a	n/a	f	3	0.02000000000000001	1	f	1	0.4324599481187761
3	49	n/a	n/a	n/a	f	3	0.01000000000000001	2	f	1	0.4084217087365687
3	50	n/a	n/a	n/a	j	3	0.02000000000000001	1	j	1	0.4073423314839602
3	51	n/a	n/a	n/a	f	3	0.01000000000000001	2	f	1	0.4163676472380757
3	52	n/a	n/a	n/a	f	3	0.02000000000000001	2	f	1	0.414843519218266
3	53	n/a	n/a	n/a	f	3	0.03000000000000001	1	f	1	0.3741194065660238
3	54	n/a	n/a	n/a	f	3	0.02000000000000001	1	f	1	0.428165246732533
3	55	n/a	n/a	n/a	f	3	0.01000000000000001	2	f	1	0.4146801582537591
3	56	n/a	n/a	n/a	j	3	0.02000000000000001	2	j	1	0.342080204281956
3	57	n/a	n/a	n/a	f	3	0.03000000000000001	0	f	1	0.3822426754049957
3	58	n/a	n/a	n/a	f	3	0.04000000000000001	1	f	1	0.4175887177698314
3	59	n/a	n/a	n/a	f	3	0.03000000000000001	2	f	1	0.411014380864799
3	60	n/a	n/a	n/a	f	3	0.04000000000000001	1	f	1	0.411573741119355
3	61	n/a	n/a	n/a	f	3	0.03000000000000001	1	f	1	0.3656959300860763
3	62	n/a	n/a	n/a	j	3	0.02000000000000001	0	j	1	0.3639186355285347
3	63	n/a	n/a	n/a	f	3	0.03000000000000001	1	f	1	0.4469348937273026
3	64	n/a	n/a	n/a	f	3	0.02000000000000001	2	f	1	0.3978927908465266
3	65	n/a	n/a	n/a	f	3	0.03000000000000001	1	f	1	0.4199809669516981
3	66	n/a	n/a	n/a	f	3	0.02000000000000001	2	f	1	0.4195647253654897
3	67	n/a	n/a	n/a	f	3	0.03000000000000001	2	f	1	0.3919690451584756
3	68	n/a	n/a	n/a	j	3	0.04000000000000001	1	j	1	0.4307841476984322
3	69	n/a	n/a	n/a	f	3	0.03000000000000001	2	f	1	0.4288965207524598
3	70	n/a	n/a	n/a	f	3	0.04000000000000001	2	f	1	0.4203418996185064
3	71	n/a	n/a	n/a	f	3	0.05000000000000002	1	f	1	0.3994542672298849
4	0	f	1	0.80201694695279	f	7	0.1	0	f	1	0.5843091728165746
4	1	n/a	n/a	n/a	f	7	0.11	1	f	1	0.5503304558806121
4	2	n/a	n/a	n/a	j	7	0.1	1	j	1	0.571309604216367
4	3	n/a	n/a	n/a	f	7	0.09000000000000001	1	f	1	0.5540127689018846
4	4	n/a	n/a	n/a	f	7	0.08000000000000002	1	f	1	0.5212716581299901
4	5	n/a	n/a	n/a	f	7	0.07000000000000002	1	f	1	0.5522437421604991
4	6	n/a	n/a	n/a	f	7	0.06000000000000002	1	f	1	0.5763937397859991
4	7	n/a	n/a	n/a	f	7	0.05000000000000002	1	f	1	0.576037083286792
4	8	n/a	n/a	n/a	j	7	0.04000000000000001	1	j	1	0.5171314789913595
4	9	n/a	n/a	n/a	f	7	0.03000000000000001	0	f	1	0.5541439135558903
4	10	n/a	n/a	n/a	f	7	0.04000000000000001	1	f	1	0.5456474525853992
4	11	n/a	n/a	n/a	f	7	0.03000000000000001	0	f	1	0.5551953511312604
4	12	n/a	n/a	n/a	f	7	0.04000000000000001	1	f	1	0.589797290507704
4	13	n/a	n/a	n/a	f	7	0.03000000000000001	1	f	1	0.5477494727820158
4	14	n/a	n/a	n/a	j	7	0.02000000000000001	0	j	1	0.530986909288913
4	15	n/a	n/a	n/a	f	7	0.03000000000000001	0	f	1	0.5880254125222564
4	16	n/a	n/a	n/a	f	7	0.04000000000000001	1	f	1	0.5457523679360747
4	17	n/a	n/a	n/a	f	7	0.03000000000000001	0	f	1	0.5436825635842979
4	18	n/a	n/a	n/a	f	7	0.04000000000000001	0	f	1	0.5655278372578323
4	19	n/a	n/a	n/a	f	7	0.05000000000000002	1	f	1	0.50080596935004
4	20	n/a	n/a	n/a	j	7	0.04000000000000001	0	j	1	0.5774323479272425
4	21	n/a	n/a	n/a	f	7	0.05000000000000002	1	f	1	0.5451277205720544
4	22	n/a	n/a	n/a	f	7	0.04000000000000001	1	f	1	0.5216642366722226
4	23	n/a	n/a	n/a	f	7	0.03000000000000001	0	f	1	0.5178102953359485
4	24	n/a	n/a	n/a	f	7	0.04000000000000001	0	f	1	0.5946504967287183
4	25	n/a	n/a	n/a	f	7	0.05000000000000002	1	f	1	0.5243008136749268
4	26	n/a	n/a	n/a	j	7	0.04000000000000001	0	j	1	0.5676341336220503
4	27	n/a	n/a	n/a	f	7	0.05000000000000002	1	f	1	0.5622549238614738
4	28	n/a	n/a	n/a	f	7	0.04000000000000001	1	f	1	0.544711478985846
4	29	n/a	n/a	n/a	f	7	0.03000000000000001	0	f	1	0.5746988374739885
4	30	n/a	n/a	n/a	f	7	0.04000000000000001	1	f	1	0.5404487084597349
4	31	n/a	n/a	n/a	f	7	0.03000000000000001	0	f	1	0.5384880960918963
4	32	n/a	n/a	n/a	j	7	0.04000000000000001	0	j	1	0.5669062812812626
4	33	n/a	n/a	n/a	f	7	0.05000000000000002	1	f	1	0.5564095792360604
4	34	n/a	n/a	n/a	f	7	0.04000000000000001	1	f	1	0.5543531747534871
4	35	n/a	n/a	n/a	f	7	0.03000000000000001	0	f	1	0.5503749311901629
4	36	n/a	n/a	n/a	f	7	0.04000000000000001	1	f	1	0.580323516856879
4	37	n/a	n/a	n/a	f	7	0.03000000000000001	1	f	1	0.5483305002562702
4	38	n/a	n/a	n/a	j	7	0.02000000000000001	0	j	1	0.5721805761568248
4	39	n/a	n/a	n/a	f	7	0.03000000000000001	1	f	1	0.5768008576706052
4	40	n/a	n/a	n/a	f	7	0.02000000000000001	1	f	1	0.5460984762758017
4	41	n/a	n/a	n/a	f	7	0.01000000000000001	0	f	1	0.5932141779921949
4	42	n/a	n/a	n/a	f	7	0.02000000000000001	1	f	1	0.5168013372458518
4	43	n/a	n/a	n/a	f	7	0.01000000000000001	0	f	1	0.5490515106357634
4	44	n/a	n/a	n/a	j	7	0.02000000000000001	0	j	1	0.5220203227363527
4	45	n/a	n/a	n/a	f	7	0.03000000000000001	0	f	1	0.6139700952917337
4	46	n/a	n/a	n/a	f	7	0.04000000000000001	1	f	1	0.5521071804687381
4	47	n/a	n/a	n/a	f	7	0.03000000000000001	0	f	1	0.5329460953362286
4	48	n/a	n/a	n/a	f	7	0.04000000000000001	0	f	1	0.5670305835083127
4	49	n/a	n/a	n/a	f	7	0.05000000000000002	1	f	1	0.5519677684642375
4	50	n/a	n/a	n/a	j	7	0.04000000000000001	1	j	1	0.6058465414680541
4	51	n/a	n/a	n/a	f	7	0.03000000000000001	1	f	1	0.5958516104146838
4	52	n/a	n/a	n/a	f	7	0.02000000000000001	1	f	1	0.5188976554200053
4	53	n/a	n/a	n/a	f	7	0.01000000000000001	0	f	1	0.5886494899168611
4	54	n/a	n/a	n/a	f	7	0.02000000000000001	1	f	1	0.5776644167490304
4	55	n/a	n/a	n/a	f	7	0.01000000000000001	1	f	1	0.5325931455008686
4	56	n/a	n/a	n/a	j	7	1.040834085586084e-17	0	j	1	0.574646380264312
4	57	n/a	n/a	n/a	f	7	0.01000000000000001	0	f	1	0.5565515574999154
4	58	n/a	n/a	n/a	f	7	0.02000000000000001	0	f	1	0.5742136025801301
4	59	n/a	n/a	n/a	f	7	0.03000000000000001	1	f	1	0.5916948961094022
4	60	n/a	n/a	n/a	f	7	0.02000000000000001	1	f	1	0.6063232235610485
4	61	n/a	n/a	n/a	f	7	0.01000000000000001	2	f	1	0.5703234542161226
4	62	n/a	n/a	n/a	j	7	0.02000000000000001	1	j	1	0.586365862749517
4	63	n/a	n/a	n/a	f	7	0.01000000000000001	1	f	1	0.5943200695328414
4	64	n/a	n/a	n/a	f	7	1.040834085586084e-17	2	f	1	0.5702875317074358
4	65	n/a	n/a	n/a	f	7	0.01000000000000001	0	f	1	0.5532347387634218
4	66	n/a	n/a	n/a	f	7	0.02000000000000001	0	f	1	0.6173254023306072
4	67	n/a	n/a	n/a	f	7	0.03000000000000001	2	f	1	0.5871900781057775
4	68	n/a	n/a	n/a	j	7	0.04000000000000001	1	j	1	0.6243319464847445
4	69	n/a	n/a	n/a	f	7	0.03000000000000001	2	f	1	0.5673775468021631
4	70	n/a	n/a	n/a	f	7	0.04000000000000001	1	f	1	0.5752140083350241
4	71	n/a	n/a	n/a	f	7	0.03000000000000001	1	f	1	0.5810314123518765
5	0	j	1	0.0738455425016582	j	4	0.1	2	j	1	0.450636878143996
5	1	n/a	n/a	n/a	j	4	0.11	1	j	1	0.4013304910622537
5	2	n/a	n/a	n/a	f	4	0.1	1	f	1	0.4242981909774244
5	3	n/a	n/a	n/a	j	4	0.09000000000000001	1	j	1	0.3880492462776601
5	4	n/a	n/a	n/a	j	4	0.08000000000000002	1	j	1	0.4270764612592757
5	5	n/a	n/a	n/a	j	4	0.07000000000000002	1	j	1	0.4081879290752113
5	6	n/a	n/a	n/a	j	4	0.06000000000000002	1	j	1	0.3991167126223445
5	7	n/a	n/a	n/a	j	4	0.05000000000000002	1	j	1	0.4270077529363334
5	8	n/a	n/a	n/a	f	4	0.04000000000000001	2	f	1	0.3942469703033566
5	9	n/a	n/a	n/a	j	4	0.05000000000000002	1	j	1	0.3611224042251706
5	10	n/a	n/a	n/a	j	4	0.04000000000000001	1	j	1	0.4309398108161986
5	11	n/a	n/a	n/a	j	4	0.03000000000000001	2	j	1	0.4304252108559012
5	12	n/a	n/a	n/a	j	4	0.04000000000000001	2	j	1	0.4454980045557022
5	13	n/a	n/a	n/a	j	4	0.05000000000000002	2	j	1	0.386076660361141
5	14	n/a	n/a	n/a	f	4	0.06000000000000002	1	f	1	0.4557623523287475
5	15	n/a	n/a	n/a	j	4	0.05000000000000002	2	j	1	0.4316277499310672
5	16	n/a	n/a	n/a	j	4	0.06000000000000002	1	j	1	0.4135189577937126
5	17	n/a	n/a	n/a	j	4	0.05000000000000002	1	j	1	0.4037073445506394
5	18	n/a	n/a	n/a	j	4	0.04000000000000001	1	j	1	0.4437366751953959
5	19	n/a	n/a	n/a	j	4	0.03000000000000001	2	j	1	0.4249028814956546
5	20	n/a	n/a	n/a	f	4	0.04000000000000001	1	f	1	0.3906479058787227
5	21	n/a	n/a	n/a	j	4	0.03000000000000001	1	j	1	0.3906199662014842
5	22	n/a	n/a	n/a	j	4	0.02000000000000001	1	j	1	0.432895006146282
5	23	n/a	n/a	n/a	j	4	0.01000000000000001	2	j	1	0.4361168872565031
5	24	n/a	n/a	n/a	j	4	0.02000000000000001	2	j	1	0.4414955279789865
5	25	n/a	n/a	n/a	j	4	0.03000000000000001	2	j	1	0.4625479462556541
5	26	n/a	n/a	n/a	f	4	0.04000000000000001	2	f	1	0.3962369477376342
5	27	n/a	n/a	n/a	j	4	0.05000000000000002	1	j	1	0.4125832696445286
5	28	n/a	n/a	n/a	j	4	0.04000000000000001	1	j	1	0.3966018715873361
5	29	n/a	n/a	n/a	j	4	0.03000000000000001	1	j	1	0.4086141488514841
5	30	n/a	n/a	n/a	j	4	0.02000000000000001	1	j	1	0.4314042339101434
5	31	n/a	n/a	n/a	j	4	0.01000000000000001	2	j	1	0.4302709735929966
5	32	n/a	n/a	n/a	f	4	0.02000000000000001	2	f	1	0.4154536267742515
5	33	n/a	n/a	n/a	j	4	0.03000000000000001	1	j	1	0.4143696879036725
5	34	n/a	n/a	n/a	j	4	0.02000000000000001	2	j	1	0.3913840260356665
5	35	n/a	n/a	n/a	j	4	0.03000000000000001	1	j	1	0.4292674316093326
5	36	n/a	n/a	n/a	j	4	0.02000000000000001	2	j	1	0.4463524403981864
5	37	n/a	n/a	n/a	j	4	0.03000000000000001	2	j	1	0.4062170535326004
5	38	n/a	n/a	n/a	f	4	0.04000000000000001	1	f	1	0.4271996230818331
5	39	n/a	n/a	n/a	j	4	0.03000000000000001	2	j	1	0.4112515817396343
5	40	n/a	n/a	n/a	j	4	0.04000000000000001	1	j	1	0.3691926449537277
5	41	n/a	n/a	n/a	j	4	0.03000000000000001	1	j	1	0.4291394231840968
5	42	n/a	n/a	n/a	j	4	0.02000000000000001	2	j	1	0.4292987925000489
5	43	n/a	n/a	n/a	j	4	0.03000000000000001	2	j	1	0.4370072456076741
5	44	n/a	n/a	n/a	f	4	0.04000000000000001	2	f	1	0.4371415260247886
5	45	n/a	n/a	n/a	j	4	0.05000000000000002	1	j	1	0.391260864213109
5	46	n/a	n/a	n/a	j	4	0.04000000000000001	1	j	1	0.4367683338932693
5	47	n/a	n/a	n/a	j	4	0.03000000000000001	2	j	1	0.43506288388744
5	48	n/a	n/a	n/a	j	4	0.04000000000000001	2	j	1	0.4110833741724491
5	49	n/a	n/a	n/a	j	4	0.05000000000000002	1	j	1	0.4149378854781389
5	50	n/a	n/a	n/a	f	4	0.04000000000000001	1	f	1	0.4069888112135231
5	51	n/a	n/a	n/a	j	4	0.03000000000000001	1	j	1	0.3817602917551994
5	52	n/a	n/a	n/a	j	4	0.02000000000000001	1	j	1	0.4029213320463896
5	53	n/a	n/a	n/a	j	4	0.01000000000000001	2	j	1	0.3946697693318129
5	54	n/a	n/a	n/a	j	4	0.02000000000000001	1	j	1	0.4009641413576901
5	55	n/a	n/a	n/a	j	4	0.01000000000000001	2	j	1	0.395570105407387
5	56	n/a	n/a	n/a	f	4	0.02000000000000001	1	f	1	0.3929794291034341
5	57	n/a	n/a	n/a	j	4	0.01000000000000001	1	j	1	0.3587740599177778
5	58	n/a	n/a	n/a	j	4	1.040834085586084e-17	0	j	1	0.4287183345295489
5	59	n/a	n/a	n/a	j	4	0.01000000000000001	2	j	1	0.3619449087418616
5	60	n/a	n/a	n/a	j	4	0.02000000000000001	0	j	1	0.4250035211443901
5	61	n/a	n/a	n/a	j	4	0.03000000000000001	2	j	1	0.4018912767060101
5	62	n/a	n/a	n/a	f	4	0.04000000000000001	1	f	1	0.3914972096681595
5	63	n/a	n/a	n/a	j	4	0.03000000000000001	1	j	1	0.4073959295637906
5	64	n/a	n/a	n/a	j	4	0.02000000000000001	2	j	1	0.3999996581114829
5	65	n/a	n/a	n/a	j	4	0.03000000000000001	1	j	1	0.4036112665198743
5	66	n/a	n/a	n/a	j	4	0.02000000000000001	1	j	1	0.4270724700763822
5	67	n/a	n/a	n/a	j	4	0.01000000000000001	2	j	1	0.3766396641731262
5	68	n/a	n/a	n/a	f	4	0.02000000000000001	1	f	1	0.4075028412044048
5	69	n/a	n/a	n/a	j	4	0.01000000000000001	2	j	1	0.4294861010275781
5	70	n/a	n/a	n/a	j	4	0.02000000000000001	2	j	1	0.3744883220642805
5	71	n/a	n/a	n/a	j	4	0.03000000000000001	1	j	1	0.4124940345063806
6	0	f	1	0.002124257385730743	f	1	0.1	1	f	1	0.3547695875167847
6	1	n/a	n/a	n/a	j	1	0.09000000000000001	1	j	1	0.3437756765633821
6	2	n/a	n/a	n/a	f	1	0.08000000000000002	1	f	1	0.4056260474026203
6	3	n/a	n/a	n/a	f	1	0.07000000000000002	1	f	1	0.3830891288816929
6	4	n/a	n/a	n/a	f	1	0.06000000000000002	1	f	1	0.3717910195700824
6	5	n/a	n/a	n/a	j	1	0.05000000000000002	1	j	1	0.375831414014101
6	6	n/a	n/a	n/a	f	1	0.04000000000000001	1	f	1	0.3885142398066819
6	7	n/a	n/a	n/a	f	1	0.03000000000000001	1	f	1	0.4024868444539607
6	8	n/a	n/a	n/a	f	1	0.02000000000000001	1	f	1	0.3693026923574507
6	9	n/a	n/a	n/a	j	1	0.01000000000000001	0	j	1	0.3692439626902342
6	10	n/a	n/a	n/a	f	1	0.02000000000000001	1	f	1	0.3794130878522992
6	11	n/a	n/a	n/a	f	1	0.01000000000000001	1	f	1	0.3689440404996276
6	12	n/a	n/a	n/a	f	1	1.040834085586084e-17	0	f	1	0.3802871950902045
6	13	n/a	n/a	n/a	j	1	0.01000000000000001	1	j	1	0.3519990150816739
6	14	n/a	n/a	n/a	f	1	1.040834085586084e-17	0	f	1	0.3652953687123954
6	15	n/a	n/a	n/a	f	1	0.01000000000000001	0	f	1	0.3764677508734167
6	16	n/a	n/a	n/a	f	1	0.02000000000000001	1	f	1	0.3844453347846866
6	17	n/a	n/a	n/a	j	1	0.01000000000000001	1	j	1	0.3479708791710436
6	18	n/a	n/a	n/a	f	1	1.040834085586084e-17	0	f	1	0.4892900460399687
6	19	n/a	n/a	n/a	f	1	0.01000000000000001	2	f	1	0.4112692577764392
6	20	n/a	n/a	n/a	f	1	0.02000000000000001	2	f	1	0.3853411101736128
6	21	n/a	n/a	n/a	j	1	0.03000000000000001	1	j	1	0.3512149979360402
6	22	n/a	n/a	n/a	f	1	0.02000000000000001	0	f	1	0.390008432790637
6	23	n/a	n/a	n/a	f	1	0.03000000000000001	1	f	1	0.3791316971182823
6	24	n/a	n/a	n/a	f	1	0.02000000000000001	1	f	1	0.3791029020212591
6	25	n/a	n/a	n/a	j	1	0.01000000000000001	1	j	1	0.3783987127244473
6	26	n/a	n/a	n/a	f	1	1.040834085586084e-17	0	f	1	0.3820177339948714
6	27	n/a	n/a	n/a	f	1	0.01000000000000001	1	f	1	0.3721097577363253
6	28	n/a	n/a	n/a	f	1	1.040834085586084e-17	0	f	1	0.3970206789672375
6	29	n/a	n/a	n/a	j	1	0.01000000000000001	1	j	1	0.3575732312165201
6	30	n/a	n/a	n/a	f	1	1.040834085586084e-17	0	f	1	0.3799427980557084
6	31	n/a	n/a	n/a	f	1	0.01000000000000001	1	f	1	0.3405489488504827
6	32	n/a	n/a	n/a	f	1	1.040834085586084e-17	0	f	1	0.3890550686046481
6	33	n/a	n/a	n/a	j	1	0.01000000000000001	1	j	1	0.3770091496407986
6	34	n/a	n/a	n/a	f	1	1.040834085586084e-17	0	f	1	0.3419493450783193
6	35	n/a	n/a	n/a	f	1	0.01000000000000001	0	f	1	0.4538128590211272
6	36	n/a	n/a	n/a	f	1	0.02000000000000001	2	f	1	0.3883423265069723
6	37	n/a	n/a	n/a	j	1	0.03000000000000001	1	j	1	0.3568373960442841
6	38	n/a	n/a	n/a	f	1	0.02000000000000001	0	f	1	0.3966443515382707
6	39	n/a	n/a	n/a	f	1	0.03000000000000001	1	f	1	0.3637478626333177
6	40	n/a	n/a	n/a	f	1	0.02000000000000001	0	f	1	0.3937893896363676
6	41	n/a	n/a	n/a	j	1	0.03000000000000001	1	j	1	0.3714038575999439
6	42	n/a	n/a	n/a	f	1	0.02000000000000001	1	f	1	0.3857653345912695
6	43	n/a	n/a	n/a	f	1	0.01000000000000001	1	f	1	0.3796599819324911
6	44	n/a	n/a	n/a	f	1	1.040834085586084e-17	0	f	1	0.3858494381420314
6	45	n/a	n/a	n/a	j	1	0.01000000000000001	1	j	1	0.3771861949935555
6	46	n/a	n/a	n/a	f	1	1.040834085586084e-17	0	f	1	0.3596920724958181
6	47	n/a	n/a	n/a	f	1	0.01000000000000001	0	f	1	0.3912029899656773
6	48	n/a	n/a	n/a	f	1	0.02000000000000001	1	f	1	0.3573693870566785
6	49	n/a	n/a	n/a	j	1	0.01000000000000001	0	j	1	0.3886000541970134
6	50	n/a	n/a	n/a	f	1	0.02000000000000001	1	f	1	0.3962777168489993
6	51	n/a	n/a	n/a	f	1	0.01000000000000001	1	f	1	0.3670860631391406
6	52	n/a	n/a	n/a	f	1	1.040834085586084e-17	0	f	1	0.3804870485328138
6	53	n/a	n/a	n/a	j	1	0.01000000000000001	1	j	1	0.3734887721948326
6	54	n/a	n/a	n/a	f	1	1.040834085586084e-17	0	f	1	0.3584077102132142
6	55	n/a	n/a	n/a	f	1	0.01000000000000001	0	f	1	0.4004084868356586
6	56	n/a	n/a	n/a	f	1	0.02000000000000001	1	f	1	0.3983221468515694
6	57	n/a	n/a	n/a	j	1	0.01000000000000001	1	f	0	0.4363620709627867
6	58	n/a	n/a	n/a	f	1	0.02000000000000001	1	j	0	0.05995390517637134
6	59	n/a	n/a	n/a	f	1	0.03000000000000001	0	f	1	0.2953921481966972
6	60	n/a	n/a	n/a	f	1	0.04000000000000001	0	f	1	0.4560397518798709
6	61	n/a	n/a	n/a	j	1	0.05000000000000002	2	j	1	0.458320242818445
6	62	n/a	n/a	n/a	f	1	0.06000000000000002	2	f	1	0.4201910831034184
6	63	n/a	n/a	n/a	f	1	0.07000000000000002	1	f	1	0.4340359647758305
6	64	n/a	n/a	n/a	f	1	0.06000000000000002	1	f	1	0.3880692035891116
6	65	n/a	n/a	n/a	j	1	0.05000000000000002	1	j	1	0.4282208406366408
6	66	n/a	n/a	n/a	f	1	0.04000000000000001	2	f	1	0.3770191282965243
6	67	n/a	n/a	n/a	f	1	0.05000000000000002	1	f	1	0.3911562338471413
6	68	n/a	n/a	n/a	f	1	0.04000000000000001	1	f	1	0.3871386465616524
6	69	n/a	n/a	n/a	j	1	0.03000000000000001	1	j	1	0.3579219053499401
6	70	n/a	n/a	n/a	f	1	0.02000000000000001	0	f	1	0.3867931091226637
6	71	n/a	n/a	n/a	f	1	0.03000000000000001	1	f	1	0.3692191592417657
7	0	j	1	0.3867677357047796	j	2	0.1	1	j	1	0.4203173811547458
7	1	n/a	n/a	n/a	f	2	0.09000000000000001	1	f	1	0.3781139007769525
7	2	n/a	n/a	n/a	j	2	0.08000000000000002	1	j	1	0.3571222079917789
7	3	n/a	n/a	n/a	j	2	0.07000000000000002	1	j	1	0.3902191198430955
7	4	n/a	n/a	n/a	j	2	0.06000000000000002	1	j	1	0.399160617031157
7	5	n/a	n/a	n/a	f	2	0.05000000000000002	1	f	1	0.3907208908349276
7	6	n/a	n/a	n/a	j	2	0.04000000000000001	1	j	1	0.379048163536936
7	7	n/a	n/a	n/a	j	2	0.03000000000000001	1	j	1	0.3696205755695701
7	8	n/a	n/a	n/a	j	2	0.02000000000000001	1	j	1	0.3940442665480077
7	9	n/a	n/a	n/a	f	2	0.01000000000000001	1	f	1	0.3820328442379832
7	10	n/a	n/a	n/a	j	2	1.040834085586084e-17	0	j	1	0.3648662981577218
7	11	n/a	n/a	n/a	j	2	0.01000000000000001	0	j	1	0.3690808871760964
7	12	n/a	n/a	n/a	j	2	0.02000000000000001	1	j	1	0.3756703343242407
7	13	n/a	n/a	n/a	f	2	0.01000000000000001	0	f	1	0.3898875517770648
7	14	n/a	n/a	n/a	j	2	0.02000000000000001	1	j	1	0.3389065046794713
7	15	n/a	n/a	n/a	j	2	0.01000000000000001	0	j	1	0.4060206217691302
7	16	n/a	n/a	n/a	j	2	0.02000000000000001	1	j	1	0.3588279434479773
7	17	n/a	n/a	n/a	f	2	0.01000000000000001	0	f	1	0.4017515792511404
7	18	n/a	n/a	n/a	j	2	0.02000000000000001	1	j	1	0.3418164900504053
7	19	n/a	n/a	n/a	j	2	0.01000000000000001	0	j	1	0.4186059441417456
7	20	n/a	n/a	n/a	j	2	0.02000000000000001	2	j	1	0.3895594053901732
7	21	n/a	n/a	n/a	f	2	0.03000000000000001	1	f	1	0.3528639990836382
7	22	n/a	n/a	n/a	j	2	0.02000000000000001	0	j	1	0.3737231218256056
7	23	n/a	n/a	n/a	j	2	0.03000000000000001	1	j	1	0.3708154172636569
7	24	n/a	n/a	n/a	j	2	0.02000000000000001	1	j	1	0.3856493001803756
7	25	n/a	n/a	n/a	f	2	0.01000000000000001	1	f	1	0.455578749999404
7	26	n/a	n/a	n/a	j	2	1.040834085586084e-17	2	j	1	0.3554127663373947
7	27	n/a	n/a	n/a	j	2	0.01000000000000001	0	j	1	0.4264700599014759
7	28	n/a	n/a	n/a	j	2	0.02000000000000001	2	j	1	0.3846714170649648
7	29	n/a	n/a	n/a	f	2	0.03000000000000001	1	f	1	0.3906396380625665
7	30	n/a	n/a	n/a	j	2	0.02000000000000001	1	j	1	0.351490686647594
7	31	n/a	n/a	n/a	j	2	0.01000000000000001	0	j	1	0.3581642373465002
7	32	n/a	n/a	n/a	j	2	0.02000000000000001	0	j	1	0.3925848547369242
7	33	n/a	n/a	n/a	f	2	0.03000000000000001	1	f	1	0.3845844627358019
7	34	n/a	n/a	n/a	j	2	0.02000000000000001	1	j	1	0.3813563091680408
7	35	n/a	n/a	n/a	j	2	0.01000000000000001	1	j	1	0.4114867863245308
7	36	n/a	n/a	n/a	j	2	1.040834085586084e-17	2	j	1	0.3936017961241305
7	37	n/a	n/a	n/a	f	2	0.01000000000000001	1	f	1	0.4055339610204101
7	38	n/a	n/a	n/a	j	2	1.040834085586084e-17	2	j	1	0.3473718902096152
7	39	n/a	n/a	n/a	j	2	0.01000000000000001	0	j	1	0.3994850576855242
7	40	n/a	n/a	n/a	j	2	0.02000000000000001	1	j	1	0.3662267806939781
7	41	n/a	n/a	n/a	f	2	0.01000000000000001	0	f	1	0.3903571064583957
7	42	n/a	n/a	n/a	j	2	0.02000000000000001	1	j	1	0.3885929267853498
7	43	n/a	n/a	n/a	j	2	0.01000000000000001	1	j	1	0.3407527930103242
7	44	n/a	n/a	n/a	j	2	1.040834085586084e-17	0	j	1	0.3847278659231961
7	45	n/a	n/a	n/a	f	2	0.01000000000000001	1	f	1	0.3742559677921236
7	46	n/a	n/a	n/a	j	2	1.040834085586084e-17	0	j	1	0.377269443590194
7	47	n/a	n/a	n/a	j	2	0.01000000000000001	0	j	1	0.3250975459814072
7	48	n/a	n/a	n/a	j	2	0.02000000000000001	0	j	1	0.4040967868641019
7	49	n/a	n/a	n/a	f	2	0.03000000000000001	1	f	1	0.4018063172698021
7	50	n/a	n/a	n/a	j	2	0.02000000000000001	1	j	1	0.3730186470784247
7	51	n/a	n/a	n/a	j	2	0.01000000000000001	0	j	1	0.3889735313132405
7	52	n/a	n/a	n/a	j	2	0.02000000000000001	1	j	1	0.3959740879945457
7	53	n/a	n/a	n/a	f	2	0.01000000000000001	2	f	1	0.3617804078385234
7	54	n/a	n/a	n/a	j	2	0.02000000000000001	0	j	1	0.357672730460763
7	55	n/a	n/a	n/a	j	2	0.03000000000000001	0	j	1	0.3579296027310193
7	56	n/a	n/a	n/a	j	2	0.04000000000000001	1	j	1	0.3851324189454317
7	57	n/a	n/a	n/a	f	2	0.03000000000000001	1	f	1	0.3610437177121639
7	58	n/a	n/a	n/a	j	2	0.02000000000000001	0	j	1	0.3748013586737216
7	59	n/a	n/a	n/a	j	2	0.03000000000000001	1	j	1	0.3569608433172107
7	60	n/a	n/a	n/a	j	2	0.02000000000000001	0	j	1	0.4135192427784204
7	61	n/a	n/a	n/a	f	2	0.03000000000000001	1	f	1	0.3827116601169109
7	62	n/a	n/a	n/a	j	2	0.02000000000000001	1	j	1	0.3768785754218698
7	63	n/a	n/a	n/a	j	2	0.01000000000000001	1	j	1	0.3610123568214476
7	64	n/a	n/a	n/a	j	2	1.040834085586084e-17	0	j	1	0.3678432810120285
7	65	n/a	n/a	n/a	f	2	0.01000000000000001	0	f	1	0.385827770922333
7	66	n/a	n/a	n/a	j	2	0.02000000000000001	1	j	1	0.3607073030434549
7	67	n/a	n/a	n/a	j	2	0.01000000000000001	0	j	1	0.4132558135315776
7	68	n/a	n/a	n/a	j	2	0.02000000000000001	2	j	1	0.3946076179854572
7	69	n/a	n/a	n/a	f	2	0.03000000000000001	1	f	1	0.3726500165648758
7	70	n/a	n/a	n/a	j	2	0.02000000000000001	1	j	1	0.36556336004287
7	71	n/a	n/a	n/a	j	2	0.01000000000000001	0	j	1	0.4076590742915869
8	0	j	1	0.5000849589705467	j	8	0.1	0	j	1	0.6215208899229765
8	1	n/a	n/a	n/a	j	8	0.11	1	j	1	0.5035651382058859
8	2	n/a	n/a	n/a	f	8	0.1	1	f	1	0.5009838696569204
8	3	n/a	n/a	n/a	j	8	0.09000000000000001	1	j	1	0.5184902516193688
8	4	n/a	n/a	n/a	j	8	0.08000000000000002	1	j	1	0.533669956959784
8	5	n/a	n/a	n/a	j	8	0.07000000000000002	1	j	1	0.4993978748098016
8	6	n/a	n/a	n/a	j	8	0.06000000000000002	0	j	1	0.5269490801729262
8	7	n/a	n/a	n/a	j	8	0.07000000000000002	1	j	1	0.4692619806155562
8	8	n/a	n/a	n/a	f	8	0.06000000000000002	0	f	1	0.5032880236394703
8	9	n/a	n/a	n/a	j	8	0.07000000000000002	0	j	1	0.492132178042084
8	10	n/a	n/a	n/a	j	8	0.08000000000000002	0	j	1	0.5091667240485549
8	11	n/a	n/a	n/a	j	8	0.09000000000000001	1	j	1	0.4893969572149217
8	12	n/a	n/a	n/a	j	8	0.08000000000000002	0	j	1	0.4931029328145087
8	13	n/a	n/a	n/a	j	8	0.09000000000000001	0	j	1	0.53301822533831
8	14	n/a	n/a	n/a	f	8	0.1	1	f	1	0.4974113190546632
8	15	n/a	n/a	n/a	j	8	0.09000000000000001	1	j	1	0.5291329231113195
8	16	n/a	n/a	n/a	j	8	0.08000000000000002	1	j	1	0.4680334976874292
8	17	n/a	n/a	n/a	j	8	0.07000000000000002	0	j	1	0.5327713312581182
8	18	n/a	n/a	n/a	j	8	0.08000000000000002	1	j	1	0.516919082030654
8	19	n/a	n/a	n/a	j	8	0.07000000000000002	0	j	1	0.5098931514658034
8	20	n/a	n/a	n/a	f	8	0.08000000000000002	1	f	1	0.5228051948361099
8	21	n/a	n/a	n/a	j	8	0.07000000000000002	1	j	1	0.5138716800138354
8	22	n/a	n/a	n/a	j	8	0.06000000000000002	0	j	1	0.4938225178048015
8	23	n/a	n/a	n/a	j	8	0.07000000000000002	0	j	1	0.4889462189748883
8	24	n/a	n/a	n/a	j	8	0.08000000000000002	0	j	1	0.4797395812347531
8	25	n/a	n/a	n/a	j	8	0.09000000000000001	0	j	1	0.5097759766504169
8	26	n/a	n/a	n/a	f	8	0.1	1	f	1	0.5157604478299618
8	27	n/a	n/a	n/a	j	8	0.09000000000000001	1	j	1	0.4976884336210787
8	28	n/a	n/a	n/a	j	8	0.08000000000000002	0	j	1	0.5035346327349544
8	29	n/a	n/a	n/a	j	8	0.09000000000000001	1	j	1	0.5165587193332613
8	30	n/a	n/a	n/a	j	8	0.08000000000000002	1	j	1	0.4857574086636305
8	31	n/a	n/a	n/a	j	8	0.07000000000000002	0	j	1	0.5346658006310463
8	32	n/a	n/a	n/a	f	8	0.08000000000000002	1	f	1	0.4874813901260495
8	33	n/a	n/a	n/a	j	8	0.07000000000000002	0	j	1	0.5035024168901145
8	34	n/a	n/a	n/a	j	8	0.08000000000000002	0	j	1	0.5097463265992701
8	35	n/a	n/a	n/a	j	8	0.09000000000000001	1	j	1	0.4584285793825984
8	36	n/a	n/a	n/a	j	8	0.08000000000000002	0	j	1	0.54541851952672
8	37	n/a	n/a	n/a	j	8	0.09000000000000001	1	j	1	0.4885028931312263
8	38	n/a	n/a	n/a	f	8	0.08000000000000002	0	f	1	0.4964878899045289
8	39	n/a	n/a	n/a	j	8	0.09000000000000001	1	j	1	0.472387214191258
8	40	n/a	n/a	n/a	j	8	0.08000000000000002	0	j	1	0.4792976807802916
8	41	n/a	n/a	n/a	j	8	0.09000000000000001	0	j	1	0.4912654832005501
8	42	n/a	n/a	n/a	j	8	0.1	1	j	1	0.536927190143615
8	43	n/a	n/a	n/a	j	8	0.09000000000000001	1	j	1	0.512908052187413
8	44	n/a	n/a	n/a	f	8	0.08000000000000002	1	f	1	0.540207801386714
8	45	n/a	n/a	n/a	j	8	0.07000000000000002	1	j	1	0.4931568168103695
8	46	n/a	n/a	n/a	j	8	0.06000000000000002	0	j	1	0.523193497210741
8	47	n/a	n/a	n/a	j	8	0.07000000000000002	1	j	1	0.5241237683221698
8	48	n/a	n/a	n/a	j	8	0.06000000000000002	1	j	1	0.5212713731452823
8	49	n/a	n/a	n/a	j	8	0.05000000000000002	0	j	1	0.5350851784460247
8	50	n/a	n/a	n/a	f	8	0.06000000000000002	1	f	1	0.476951617281884
8	51	n/a	n/a	n/a	j	8	0.05000000000000002	0	j	1	0.5038907187990844
8	52	n/a	n/a	n/a	j	8	0.06000000000000002	0	j	1	0.4849491585046053
8	53	n/a	n/a	n/a	j	8	0.07000000000000002	0	j	1	0.5282151959836483
8	54	n/a	n/a	n/a	j	8	0.08000000000000002	1	j	1	0.4995384276844561
8	55	n/a	n/a	n/a	j	8	0.07000000000000002	0	j	1	0.5379059282131493
8	56	n/a	n/a	n/a	f	8	0.08000000000000002	1	f	1	0.5017998171970248
8	57	n/a	n/a	n/a	j	8	0.07000000000000002	0	j	1	0.5666921734809875
8	58	n/a	n/a	n/a	j	8	0.08000000000000002	1	j	1	0.48384013120085
8	59	n/a	n/a	n/a	j	8	0.07000000000000002	0	j	1	0.5446196780540049
8	60	n/a	n/a	n/a	j	8	0.08000000000000002	1	j	1	0.5576731292530894
8	61	n/a	n/a	n/a	j	8	0.07000000000000002	1	j	1	0.5146448630839586
8	62	n/a	n/a	n/a	f	8	0.06000000000000002	0	f	1	0.4895258210599422
8	63	n/a	n/a	n/a	j	8	0.07000000000000002	0	j	1	0.534638146404177
8	64	n/a	n/a	n/a	j	8	0.08000000000000002	1	j	1	0.5073996931314468
8	65	n/a	n/a	n/a	j	8	0.07000000000000002	0	j	1	0.571571038570255
8	66	n/a	n/a	n/a	j	8	0.08000000000000002	1	j	1	0.5072092479094863
8	67	n/a	n/a	n/a	j	8	0.07000000000000002	0	j	1	0.5564799983985722
8	68	n/a	n/a	n/a	f	8	0.08000000000000002	1	f	1	0.5664170547388494
8	69	n/a	n/a	n/a	j	8	0.07000000000000002	1	j	1	0.5474170497618616
8	70	n/a	n/a	n/a	j	8	0.06000000000000002	1	j	1	0.5304395225830376
8	71	n/a	n/a	n/a	j	8	0.05000000000000002	0	j	1	0.5709806024096906
9	0	f	1	0.03135667974129319	f	9	0.1	0	f	1	0.9843860920518637
9	1	n/a	n/a	n/a	j	9	0.11	1	j	1	0.9005892388522625
9	2	n/a	n/a	n/a	f	9	0.1	1	f	1	0.9206985561177135
9	3	n/a	n/a	n/a	f	9	0.09000000000000001	1	f	1	0.8765224893577397
9	4	n/a	n/a	n/a	f	9	0.08000000000000002	0	f	1	0.9325007172301412
9	5	n/a	n/a	n/a	j	9	0.09000000000000001	1	j	1	0.9255021559074521
9	6	n/a	n/a	n/a	f	9	0.08000000000000002	1	f	1	0.9794604713097215
9	7	n/a	n/a	n/a	f	9	0.07000000000000002	1	f	1	0.958307983353734
9	8	n/a	n/a	n/a	f	9	0.06000000000000002	1	f	1	0.9443992408923805
9	9	n/a	n/a	n/a	j	9	0.05000000000000002	1	j	1	0.8072276655584574
9	10	n/a	n/a	n/a	f	9	0.04000000000000001	0	f	1	0.9271006947383285
9	11	n/a	n/a	n/a	f	9	0.05000000000000002	0	f	1	0.9682384822517633
9	12	n/a	n/a	n/a	f	9	0.06000000000000002	1	f	1	0.9411625345237553
9	13	n/a	n/a	n/a	j	9	0.05000000000000002	1	j	1	0.8731326856650412
9	14	n/a	n/a	n/a	f	9	0.04000000000000001	0	f	1	0.9517906657420099
9	15	n/a	n/a	n/a	f	9	0.05000000000000002	1	f	1	0.9816229320131242
9	16	n/a	n/a	n/a	f	9	0.04000000000000001	1	f	1	0.9129213946871459
9	17	n/a	n/a	n/a	j	9	0.03000000000000001	0	j	1	0.9126174813136458
9	18	n/a	n/a	n/a	f	9	0.04000000000000001	0	f	1	0.9267491698265076
9	19	n/a	n/a	n/a	f	9	0.05000000000000002	0	f	1	1.002799937967211
9	20	n/a	n/a	n/a	f	9	0.06000000000000002	1	f	1	0.9306415994651616
9	21	n/a	n/a	n/a	j	9	0.05000000000000002	0	j	1	0.9686618512496352
9	22	n/a	n/a	n/a	f	9	0.06000000000000002	1	f	1	0.9123916844837368
9	23	n/a	n/a	n/a	f	9	0.05000000000000002	0	f	1	0.9288708618842065
9	24	n/a	n/a	n/a	f	9	0.06000000000000002	1	f	1	0.863749573007226
9	25	n/a	n/a	n/a	j	9	0.05000000000000002	0	j	1	0.9411682360805571
9	26	n/a	n/a	n/a	f	9	0.06000000000000002	1	f	1	0.949976593721658
9	27	n/a	n/a	n/a	f	9	0.05000000000000002	1	f	1	0.8919656244106591
9	28	n/a	n/a	n/a	f	9	0.04000000000000001	0	f	1	0.9711863859556615
9	29	n/a	n/a	n/a	j	9	0.05000000000000002	1	j	1	0.9287260323762894
9	30	n/a	n/a	n/a	f	9	0.04000000000000001	0	f	1	0.9150696005672216
9	31	n/a	n/a	n/a	f	9	0.05000000000000002	0	f	1	0.9549600891768932
9	32	n/a	n/a	n/a	f	9	0.06000000000000002	1	f	1	1.022991077974439
9	33	n/a	n/a	n/a	j	9	0.05000000000000002	1	j	1	1.067527222912759
9	34	n/a	n/a	n/a	f	9	0.04000000000000001	2	f	1	0.9597944794222713
9	35	n/a	n/a	n/a	f	9	0.05000000000000002	1	f	1	0.9347239034250379
9	36	n/a	n/a	n/a	f	9	0.04000000000000001	0	f	1	0.8787642074748874
9	37	n/a	n/a	n/a	j	9	0.05000000000000002	0	j	1	1.020685498602688
9	38	n/a	n/a	n/a	f	9	0.06000000000000002	1	f	1	0.9688317691907287
9	39	n/a	n/a	n/a	f	9	0.05000000000000002	1	f	1	0.9265133948065341
9	40	n/a	n/a	n/a	f	9	0.04000000000000001	0	f	1	1.022585100028664
9	41	n/a	n/a	n/a	j	9	0.05000000000000002	1	j	1	1.057573630474508
9	42	n/a	n/a	n/a	f	9	0.04000000000000001	2	f	1	0.9833899629302323
9	43	n/a	n/a	n/a	f	9	0.05000000000000002	1	f	1	0.9593266351148486
9	44	n/a	n/a	n/a	f	9	0.04000000000000001	1	f	1	0.8852969198487699
9	45	n/a	n/a	n/a	j	9	0.03000000000000001	0	j	1	0.9732071533799171
9	46	n/a	n/a	n/a	f	9	0.04000000000000001	1	f	1	0.932207637000829
9	47	n/a	n/a	n/a	f	9	0.03000000000000001	0	f	1	1.018096817657351
9	48	n/a	n/a	n/a	f	9	0.04000000000000001	1	f	1	1.023058075923473
9	49	n/a	n/a	n/a	j	9	0.03000000000000001	2	j	1	1.011677573435009
9	50	n/a	n/a	n/a	f	9	0.04000000000000001	1	f	1	0.9441671716049314
9	51	n/a	n/a	n/a	f	9	0.03000000000000001	0	f	1	0.9590004840865731
9	52	n/a	n/a	n/a	f	9	0.04000000000000001	1	f	1	0.9488535965792835
9	53	n/a	n/a	n/a	j	9	0.03000000000000001	0	j	1	0.9307972621172667
9	54	n/a	n/a	n/a	f	9	0.04000000000000001	0	f	1	0.9300671289674938
9	55	n/a	n/a	n/a	f	9	0.05000000000000002	0	f	1	1.004824697040021
9	56	n/a	n/a	n/a	f	9	0.06000000000000002	1	f	1	1.048328789882362
9	57	n/a	n/a	n/a	j	9	0.05000000000000002	2	j	1	0.9812953555956483
9	58	n/a	n/a	n/a	f	9	0.06000000000000002	1	f	1	0.9375606188550591
9	59	n/a	n/a	n/a	f	9	0.05000000000000002	0	f	1	1.0395238539204
9	60	n/a	n/a	n/a	f	9	0.06000000000000002	1	f	1	1.040420198813081
9	61	n/a	n/a	n/a	j	9	0.05000000000000002	2	j	1	0.9433381096459925
9	62	n/a	n/a	n/a	f	9	0.06000000000000002	1	f	1	1.012234938330948
9	63	n/a	n/a	n/a	f	9	0.05000000000000002	1	f	1	1.034309144597501
9	64	n/a	n/a	n/a	f	9	0.04000000000000001	2	f	1	1.075061766430736
9	65	n/a	n/a	n/a	j	9	0.05000000000000002	2	j	1	1.06708475202322
9	66	n/a	n/a	n/a	f	9	0.06000000000000002	2	f	1	1.00019015930593
9	67	n/a	n/a	n/a	f	9	0.07000000000000002	1	f	1	0.9889687411487103
9	68	n/a	n/a	n/a	f	9	0.06000000000000002	1	f	1	0.972952276468277
9	69	n/a	n/a	n/a	j	9	0.05000000000000002	1	j	1	1.052056718617678
9	70	n/a	n/a	n/a	f	9	0.04000000000000001	2	f	1	0.9378214827738702
9	71	n/a	n/a	n/a	f	9	0.05000000000000002	1	f	1	0.9978968393988907
10	0	j	1	0.08785777539014816	j	10	0.1	1	j	1	0.9691741708666086
10	1	n/a	n/a	n/a	f	10	0.09000000000000001	1	f	1	1.02609179308638
10	2	n/a	n/a	n/a	j	10	0.08000000000000002	1	j	1	0.9590663411654532
10	3	n/a	n/a	n/a	j	10	0.07000000000000002	1	j	1	0.9660486523061991
10	4	n/a	n/a	n/a	j	10	0.06000000000000002	1	j	1	1.011080009862781
10	5	n/a	n/a	n/a	f	10	0.05000000000000002	1	f	1	0.9249673136509955
10	6	n/a	n/a	n/a	j	10	0.04000000000000001	0	j	1	1.056019281502813
10	7	n/a	n/a	n/a	j	10	0.05000000000000002	2	j	1	1.020909870043397
10	8	n/a	n/a	n/a	j	10	0.06000000000000002	2	f	0	1.027307161595672
10	9	n/a	n/a	n/a	f	10	0.05000000000000002	1	f	1	1.097849570214748
10	10	n/a	n/a	n/a	j	10	0.04000000000000001	2	j	1	1.023389359004796
10	11	n/a	n/a	n/a	j	10	0.05000000000000002	1	j	1	1.023188365623355
10	12	n/a	n/a	n/a	j	10	0.04000000000000001	1	j	1	0.9854651843197644
10	13	n/a	n/a	n/a	f	10	0.03000000000000001	1	f	1	1.000598133541644
10	14	n/a	n/a	n/a	j	10	0.02000000000000001	1	j	1	1.022309410851449
10	15	n/a	n/a	n/a	j	10	0.01000000000000001	2	j	1	0.9992744280025363
10	16	n/a	n/a	n/a	j	10	0.02000000000000001	1	j	1	1.004232835024595
10	17	n/a	n/a	n/a	f	10	0.01000000000000001	2	f	1	0.9892241884954274
10	18	n/a	n/a	n/a	j	10	0.02000000000000001	1	j	1	1.017138606868684
10	19	n/a	n/a	n/a	j	10	0.01000000000000001	2	j	1	1.014768880326301
10	20	n/a	n/a	n/a	j	10	0.02000000000000001	2	j	1	1.008190552238375
10	21	n/a	n/a	n/a	f	10	0.03000000000000001	1	f	1	0.964984955266118
10	22	n/a	n/a	n/a	j	10	0.02000000000000001	0	j	1	0.9718663422390819
10	23	n/a	n/a	n/a	j	10	0.03000000000000001	1	j	1	0.9957215492613614
10	24	n/a	n/a	n/a	j	10	0.02000000000000001	1	j	1	0.915894671343267
10	25	n/a	n/a	n/a	f	10	0.01000000000000001	0	f	1	0.9462999822571874
10	26	n/a	n/a	n/a	j	10	0.02000000000000001	0	j	1	1.067800630349666
10	27	n/a	n/a	n/a	j	10	0.03000000000000001	2	j	1	1.010630127042532
10	28	n/a	n/a	n/a	j	10	0.04000000000000001	1	j	1	1.015588249545544
10	29	n/a	n/a	n/a	f	10	0.03000000000000001	2	f	1	1.010114956647158
10	30	n/a	n/a	n/a	j	10	0.04000000000000001	1	j	1	0.9964074925519526
10	31	n/a	n/a	n/a	j	10	0.03000000000000001	1	j	1	0.9635392283089459
10	32	n/a	n/a	n/a	j	10	0.02000000000000001	0	j	1	1.045325292740017
10	33	n/a	n/a	n/a	f	10	0.03000000000000001	2	f	1	0.9622540110722184
10	34	n/a	n/a	n/a	j	10	0.04000000000000001	1	j	1	1.047198950313032
10	35	n/a	n/a	n/a	j	10	0.03000000000000001	2	j	1	0.9902870301157236
10	36	n/a	n/a	n/a	j	10	0.04000000000000001	1	j	1	1.004301828797907
10	37	n/a	n/a	n/a	f	10	0.03000000000000001	1	f	1	0.9657615595497191
10	38	n/a	n/a	n/a	j	10	0.02000000000000001	0	j	1	0.9730112915858626
10	39	n/a	n/a	n/a	j	10	0.03000000000000001	1	j	1	1.041878470219672
10	40	n/a	n/a	n/a	j	10	0.02000000000000001	2	j	1	1.030792757868767
10	41	n/a	n/a	n/a	f	10	0.03000000000000001	2	f	1	0.9774282998405397
10	42	n/a	n/a	n/a	j	10	0.04000000000000001	1	j	1	1.052529694046825
10	43	n/a	n/a	n/a	j	10	0.03000000000000001	2	j	1	1.016848092898726
10	44	n/a	n/a	n/a	j	10	0.04000000000000001	1	j	1	1.031681975349784
10	45	n/a	n/a	n/a	f	10	0.03000000000000001	2	f	1	0.9847467397339642
10	46	n/a	n/a	n/a	j	10	0.04000000000000001	1	j	1	1.039712017867714
10	47	n/a	n/a	n/a	j	10	0.03000000000000001	2	j	1	0.9985320353880525
10	48	n/a	n/a	n/a	j	10	0.04000000000000001	1	j	1	1.029497846961021
10	49	n/a	n/a	n/a	f	10	0.03000000000000001	2	f	1	1.027372449170798
10	50	n/a	n/a	n/a	j	10	0.04000000000000001	2	j	1	0.9763677385635674
10	51	n/a	n/a	n/a	j	10	0.05000000000000002	1	j	1	1.01327098114416
10	52	n/a	n/a	n/a	j	10	0.04000000000000001	1	j	1	1.084221648052335
10	53	n/a	n/a	n/a	f	10	0.03000000000000001	2	f	1	1.012810264248401
10	54	n/a	n/a	n/a	j	10	0.04000000000000001	1	j	1	0.9762437213212252
10	55	n/a	n/a	n/a	j	10	0.03000000000000001	1	j	1	0.9036497548222542
10	56	n/a	n/a	n/a	j	10	0.02000000000000001	0	j	1	1.069411143194884
10	57	n/a	n/a	n/a	f	10	0.03000000000000001	2	f	1	1.009936771355569
10	58	n/a	n/a	n/a	j	10	0.04000000000000001	1	j	1	1.018815832212567
10	59	n/a	n/a	n/a	j	10	0.03000000000000001	2	j	1	1.07376543013379
10	60	n/a	n/a	n/a	j	10	0.04000000000000001	2	j	1	1.041580258402973
10	61	n/a	n/a	n/a	f	10	0.05000000000000002	2	f	1	0.9733075071126223
10	62	n/a	n/a	n/a	j	10	0.06000000000000002	1	j	1	1.082588327582926
10	63	n/a	n/a	n/a	j	10	0.05000000000000002	2	j	1	1.071513163857162
10	64	n/a	n/a	n/a	j	10	0.06000000000000002	2	j	1	0.9742363533005118
10	65	n/a	n/a	n/a	f	10	0.07000000000000002	1	f	1	0.9929395723156631
10	66	n/a	n/a	n/a	j	10	0.06000000000000002	1	j	1	0.9613422709517181
10	67	n/a	n/a	n/a	j	10	0.05000000000000002	1	j	1	1.069248067680746
10	68	n/a	n/a	n/a	j	10	0.04000000000000001	2	j	1	1.05749950511381
10	69	n/a	n/a	n/a	f	10	0.05000000000000002	2	f	1	0.9682632857002318
10	70	n/a	n/a	n/a	j	10	0.06000000000000002	1	j	1	0.9694070951081812
10	71	n/a	n/a	n/a	j	10	0.05000000000000002	1	j	1	1.000940250232816
11	0	f	1	0.06782486382871866	f	11	0.1	1	f	1	1.053393823560327
11	1	n/a	n/a	n/a	f	11	0.09000000000000001	1	f	1	0.9943294208496809
11	2	n/a	n/a	n/a	j	11	0.08000000000000002	1	j	1	0.9699633195996284
11	3	n/a	n/a	n/a	f	11	0.07000000000000002	1	f	1	1.026832760311663
11	4	n/a	n/a	n/a	f	11	0.06000000000000002	1	f	1	0.9941002023406327
11	5	n/a	n/a	n/a	f	11	0.05000000000000002	1	f	1	0.975847436580807
11	6	n/a	n/a	n/a	f	11	0.04000000000000001	1	f	1	1.052049590740353
11	7	n/a	n/a	n/a	f	11	0.03000000000000001	2	f	1	0.9980530724860728
11	8	n/a	n/a	n/a	j	11	0.04000000000000001	1	j	1	1.030644507147372
11	9	n/a	n/a	n/a	f	11	0.03000000000000001	2	f	1	0.9974652021192014
11	10	n/a	n/a	n/a	f	11	0.04000000000000001	1	f	1	1.004567824304104
11	11	n/a	n/a	n/a	f	11	0.03000000000000001	1	f	1	0.9867620901204646
11	12	n/a	n/a	n/a	f	11	0.02000000000000001	1	f	1	0.9622725425288081
11	13	n/a	n/a	n/a	f	11	0.01000000000000001	0	f	1	0.954587182495743
11	14	n/a	n/a	n/a	j	11	0.02000000000000001	0	j	1	1.009278767276555
11	15	n/a	n/a	n/a	f	11	0.03000000000000001	1	f	1	0.9766656649298966
11	16	n/a	n/a	n/a	f	11	0.02000000000000001	1	f	1	1.021257403306663
11	17	n/a	n/a	n/a	f	11	0.01000000000000001	2	f	1	1.010394921991974
11	18	n/a	n/a	n/a	f	11	0.02000000000000001	2	f	1	1.008544357027858
11	19	n/a	n/a	n/a	f	11	0.03000000000000001	1	f	1	0.9352336567826569
11	20	n/a	n/a	n/a	j	11	0.02000000000000001	0	j	1	1.027097045443952
11	21	n/a	n/a	n/a	f	11	0.03000000000000001	2	f	1	1.017445086035877
11	22	n/a	n/a	n/a	f	11	0.04000000000000001	1	f	1	0.9651069771498442
11	23	n/a	n/a	n/a	f	11	0.03000000000000001	1	f	1	0.9921874864958227
11	24	n/a	n/a	n/a	f	11	0.02000000000000001	1	f	1	1.063171225134283
11	25	n/a	n/a	n/a	f	11	0.01000000000000001	2	f	1	0.9931052140891552
11	26	n/a	n/a	n/a	j	11	0.02000000000000001	1	j	1	0.9999612267129123
11	27	n/a	n/a	n/a	f	11	0.01000000000000001	2	f	1	1.012792587745935
11	28	n/a	n/a	n/a	f	11	0.02000000000000001	2	f	1	1.066720398142934
11	29	n/a	n/a	n/a	f	11	0.03000000000000001	2	f	1	1.001698038075119
11	30	n/a	n/a	n/a	f	11	0.04000000000000001	1	f	1	0.9614682840183377
11	31	n/a	n/a	n/a	f	11	0.03000000000000001	1	f	1	1.012585322372615
11	32	n/a	n/a	n/a	j	11	0.02000000000000001	2	j	1	1.003594217821956
11	33	n/a	n/a	n/a	f	11	0.03000000000000001	1	f	1	0.9946427419781685
11	34	n/a	n/a	n/a	f	11	0.02000000000000001	1	f	1	0.9465890708379447
11	35	n/a	n/a	n/a	f	11	0.01000000000000001	0	f	1	0.9725374602712691
11	36	n/a	n/a	n/a	f	11	0.02000000000000001	1	f	1	0.9973471723496914
11	37	n/a	n/a	n/a	f	11	0.01000000000000001	2	f	1	0.947364819701761
11	38	n/a	n/a	n/a	j	11	0.02000000000000001	0	j	1	0.9519283678382635
11	39	n/a	n/a	n/a	f	11	0.03000000000000001	0	f	1	1.02721992181614
11	40	n/a	n/a	n/a	f	11	0.04000000000000001	2	f	1	1.008060262538493
11	41	n/a	n/a	n/a	f	11	0.05000000000000002	1	f	1	0.9099868913181126
11	42	n/a	n/a	n/a	f	11	0.04000000000000001	0	f	1	1.035519951488823
11	43	n/a	n/a	n/a	f	11	0.05000000000000002	2	f	1	0.9775822521187365
11	44	n/a	n/a	n/a	j	11	0.06000000000000002	2	f	0	1.030861181207001
11	45	n/a	n/a	n/a	f	11	0.05000000000000002	1	f	1	0.9769829781726003
11	46	n/a	n/a	n/a	f	11	0.04000000000000001	1	f	1	1.007964184973389
11	47	n/a	n/a	n/a	f	11	0.03000000000000001	1	f	1	0.9718706184066832
11	48	n/a	n/a	n/a	f	11	0.02000000000000001	1	f	1	0.9976145932450891
11	49	n/a	n/a	n/a	f	11	0.01000000000000001	2	f	1	1.034479062538594
11	50	n/a	n/a	n/a	j	11	0.02000000000000001	2	j	1	0.9705457724630833
11	51	n/a	n/a	n/a	f	11	0.03000000000000001	1	f	1	0.8504714649170637
11	52	n/a	n/a	n/a	f	11	0.02000000000000001	0	f	1	1.009694723878056
11	53	n/a	n/a	n/a	f	11	0.03000000000000001	1	f	1	1.018841206096113
11	54	n/a	n/a	n/a	f	11	0.02000000000000001	2	f	1	1.013464846648276
11	55	n/a	n/a	n/a	f	11	0.03000000000000001	1	f	1	0.9408358130604029
11	56	n/a	n/a	n/a	j	11	0.02000000000000001	0	j	1	0.9153096526861191
11	57	n/a	n/a	n/a	f	11	0.03000000000000001	0	f	1	1.009782533627003
11	58	n/a	n/a	n/a	f	11	0.04000000000000001	1	f	1	1.008233031257987
11	59	n/a	n/a	n/a	f	11	0.03000000000000001	1	f	1	1.003089881502092
11	60	n/a	n/a	n/a	f	11	0.02000000000000001	1	f	1	0.9905148223042488
11	61	n/a	n/a	n/a	f	11	0.01000000000000001	1	f	1	0.980954094324261
11	62	n/a	n/a	n/a	j	11	1.040834085586084e-17	0	j	1	0.9468790143728256
11	63	n/a	n/a	n/a	f	11	0.01000000000000001	0	f	1	0.9858121471479535
11	64	n/a	n/a	n/a	f	11	0.02000000000000001	1	f	1	0.9448981606401503
11	65	n/a	n/a	n/a	f	11	0.01000000000000001	0	f	1	0.9748384784907103
11	66	n/a	n/a	n/a	f	11	0.02000000000000001	1	f	1	0.9746169578284025
11	67	n/a	n/a	n/a	f	11	0.01000000000000001	0	f	1	0.9115979745984077
11	68	n/a	n/a	n/a	j	11	0.02000000000000001	0	j	1	0.9435145845636725
11	69	n/a	n/a	n/a	f	11	0.03000000000000001	0	f	1	1.025152113754302
11	70	n/a	n/a	n/a	f	11	0.04000000000000001	1	f	1	1.044387323781848
11	71	n/a	n/a	n/a	f	11	0.03000000000000001	2	f	1	0.9888986079022288
12	0	j	1	0.03132817009463906	j	12	0.06000000000000002	1	j	1	1.016698701772839
12	1	n/a	n/a	n/a	j	12	0.05000000000000002	1	j	1	0.9331826688721776
12	2	n/a	n/a	n/a	f	12	0.04000000000000001	0	f	1	0.9527055420912802
12	3	n/a	n/a	n/a	j	12	0.05000000000000002	1	j	1	1.028497156687081
12	4	n/a	n/a	n/a	j	12	0.04000000000000001	2	j	1	0.9644572408869863
12	5	n/a	n/a	n/a	j	12	0.05000000000000002	1	j	1	0.9391315034590662
12	6	n/a	n/a	n/a	j	12	0.04000000000000001	0	j	1	1.016179255209863
12	7	n/a	n/a	n/a	j	12	0.05000000000000002	1	j	1	0.9332978478632867
12	8	n/a	n/a	n/a	f	12	0.04000000000000001	0	f	1	0.9024685979820788
12	9	n/a	n/a	n/a	j	12	0.05000000000000002	0	j	1	0.9078780286945403
12	10	n/a	n/a	n/a	j	12	0.06000000000000002	0	j	1	0.8682284471578896
12	11	n/a	n/a	n/a	j	12	0.07000000000000002	0	j	1	1.043146010953933
12	12	n/a	n/a	n/a	j	12	0.08000000000000002	1	j	1	1.00814351066947
12	13	n/a	n/a	n/a	j	12	0.07000000000000002	1	j	1	0.9976727529428899
12	14	n/a	n/a	n/a	f	12	0.06000000000000002	1	f	1	0.9708322947844863
12	15	n/a	n/a	n/a	j	12	0.05000000000000002	1	j	1	0.8578415079973638
12	16	n/a	n/a	n/a	j	12	0.04000000000000001	0	j	1	1.05483783967793
12	17	n/a	n/a	n/a	j	12	0.05000000000000002	2	j	1	0.9802647298201919
12	18	n/a	n/a	n/a	j	12	0.06000000000000002	1	j	1	1.019610967952758
12	19	n/a	n/a	n/a	j	12	0.05000000000000002	1	j	1	0.8977425447665155
12	20	n/a	n/a	n/a	f	12	0.04000000000000001	0	f	1	1.000771472696215
12	21	n/a	n/a	n/a	j	12	0.05000000000000002	1	j	1	1.088733308482915
12	22	n/a	n/a	n/a	j	12	0.04000000000000001	2	j	1	1.005498095881194
12	23	n/a	n/a	n/a	j	12	0.05000000000000002	1	j	1	0.9883985472843051
12	24	n/a	n/a	n/a	j	12	0.04000000000000001	1	j	1	0.92939059343189
12	25	n/a	n/a	n/a	j	12	0.03000000000000001	0	j	1	0.9909418975003064
12	26	n/a	n/a	n/a	f	12	0.04000000000000001	1	f	1	1.053652691654861
12	27	n/a	n/a	n/a	j	12	0.03000000000000001	2	j	1	0.9102135431021452
12	28	n/a	n/a	n/a	j	12	0.04000000000000001	0	j	1	1.028096025343984
12	29	n/a	n/a	n/a	j	12	0.05000000000000002	1	j	1	1.019798846915364
12	30	n/a	n/a	n/a	j	12	0.04000000000000001	1	j	1	0.9961024387739599
12	31	n/a	n/a	n/a	j	12	0.03000000000000001	1	j	1	1.025936130434275
12	32	n/a	n/a	n/a	f	12	0.02000000000000001	2	f	1	1.001899030990899
12	33	n/a	n/a	n/a	j	12	0.03000000000000001	1	j	1	0.9307627654634416
12	34	n/a	n/a	n/a	j	12	0.02000000000000001	0	j	1	1.035541333723813
12	35	n/a	n/a	n/a	j	12	0.03000000000000001	2	j	1	1.046711149159819
12	36	n/a	n/a	n/a	j	12	0.04000000000000001	2	j	1	1.027299749199301
12	37	n/a	n/a	n/a	j	12	0.05000000000000002	1	j	1	1.018669007811695
12	38	n/a	n/a	n/a	f	12	0.04000000000000001	1	f	1	0.9679599427618086
12	39	n/a	n/a	n/a	j	12	0.03000000000000001	1	j	1	1.126522346865386
12	40	n/a	n/a	n/a	j	12	0.02000000000000001	2	j	1	0.9894314538687468
12	41	n/a	n/a	n/a	j	12	0.03000000000000001	1	j	1	0.9979661176912487
12	42	n/a	n/a	n/a	j	12	0.02000000000000001	1	j	1	1.012272571213543
12	43	n/a	n/a	n/a	j	12	0.01000000000000001	2	j	1	0.9612698564305902
12	44	n/a	n/a	n/a	f	12	0.02000000000000001	0	f	1	1.031028817873448
12	45	n/a	n/a	n/a	j	12	0.03000000000000001	2	j	1	1.034159468486905
12	46	n/a	n/a	n/a	j	12	0.04000000000000001	2	j	1	0.9773416300304234
12	47	n/a	n/a	n/a	j	12	0.05000000000000002	1	j	1	0.9709546016529202
12	48	n/a	n/a	n/a	j	12	0.04000000000000001	1	j	1	1.067631282843649
12	49	n/a	n/a	n/a	j	12	0.03000000000000001	2	j	1	1.035920227412134
12	50	n/a	n/a	n/a	f	12	0.04000000000000001	2	f	1	1.001846573781222
12	51	n/a	n/a	n/a	j	12	0.05000000000000002	1	j	1	0.9999831793829799
12	52	n/a	n/a	n/a	j	12	0.04000000000000001	1	j	1	0.9883047505281866
12	53	n/a	n/a	n/a	j	12	0.03000000000000001	1	j	1	0.9457819610834122
12	54	n/a	n/a	n/a	j	12	0.02000000000000001	0	j	1	1.023383656516671
12	55	n/a	n/a	n/a	j	12	0.03000000000000001	2	j	1	0.9957785685546696
12	56	n/a	n/a	n/a	f	12	0.04000000000000001	1	f	1	1.026507179252803
12	57	n/a	n/a	n/a	j	12	0.03000000000000001	2	j	1	0.9344755839556456
12	58	n/a	n/a	n/a	j	12	0.04000000000000001	0	j	1	1.036064201500267
12	59	n/a	n/a	n/a	j	12	0.05000000000000002	2	j	1	0.9836445548571646
12	60	n/a	n/a	n/a	j	12	0.06000000000000002	1	j	1	0.9958010911941528
12	61	n/a	n/a	n/a	j	12	0.05000000000000002	1	j	1	0.9111318406648934
12	62	n/a	n/a	n/a	f	12	0.04000000000000001	0	f	1	1.02223100932315
12	63	n/a	n/a	n/a	j	12	0.05000000000000002	1	j	1	0.9961728574708104
12	64	n/a	n/a	n/a	j	12	0.04000000000000001	1	j	1	0.9851387478411198
12	65	n/a	n/a	n/a	j	12	0.03000000000000001	1	j	1	1.013939247932285
12	66	n/a	n/a	n/a	j	12	0.02000000000000001	2	j	1	1.027903584763408
12	67	n/a	n/a	n/a	j	12	0.03000000000000001	2	j	1	1.047546483576298
12	68	n/a	n/a	n/a	f	12	0.04000000000000001	2	f	1	0.9648033482953906
12	69	n/a	n/a	n/a	j	12	0.05000000000000002	1	j	1	1.005802864674479
12	70	n/a	n/a	n/a	j	12	0.04000000000000001	1	j	1	0.9492327752523124
12	71	n/a	n/a	n/a	j	12	0.03000000000000001	0	j	1	0.9406256964430213
13	0	j	1	0.07820809679105878	j	6	0.04000000000000001	2	j	1	0.6866222219541669
13	1	n/a	n/a	n/a	f	6	0.05000000000000002	2	f	1	0.6501953769475222
13	2	n/a	n/a	n/a	j	6	0.06000000000000002	2	j	1	0.6070847176015377
13	3	n/a	n/a	n/a	j	6	0.07000000000000002	1	j	1	0.6234592646360397
13	4	n/a	n/a	n/a	j	6	0.06000000000000002	1	j	1	0.6054337210953236
13	5	n/a	n/a	n/a	f	6	0.05000000000000002	1	f	1	0.605435146484524
13	6	n/a	n/a	n/a	j	6	0.04000000000000001	1	j	1	0.5313512627035379
13	7	n/a	n/a	n/a	j	6	0.03000000000000001	0	j	1	0.6484688296914101
13	8	n/a	n/a	n/a	j	6	0.04000000000000001	2	j	1	0.6203089426271617
13	9	n/a	n/a	n/a	f	6	0.05000000000000002	1	f	1	0.658205462154001
13	10	n/a	n/a	n/a	j	6	0.04000000000000001	2	j	1	0.5991367832757533
13	11	n/a	n/a	n/a	j	6	0.05000000000000002	1	j	1	0.60420609312132
13	12	n/a	n/a	n/a	j	6	0.04000000000000001	1	j	1	0.5940557844005525
13	13	n/a	n/a	n/a	f	6	0.03000000000000001	1	f	1	0.631152322050184
13	14	n/a	n/a	n/a	j	6	0.02000000000000001	2	j	1	0.5891102068126202
13	15	n/a	n/a	n/a	j	6	0.03000000000000001	1	j	1	0.5950447856448591
13	16	n/a	n/a	n/a	j	6	0.02000000000000001	1	j	1	0.6241645943373442
13	17	n/a	n/a	n/a	f	6	0.01000000000000001	2	f	1	0.5900253676809371
13	18	n/a	n/a	n/a	j	6	0.02000000000000001	1	j	1	0.5959311528131366
13	19	n/a	n/a	n/a	j	6	0.01000000000000001	2	j	1	0.5920541184023023
13	20	n/a	n/a	n/a	j	6	0.02000000000000001	1	j	1	0.6139378794468939
13	21	n/a	n/a	n/a	f	6	0.01000000000000001	2	f	1	0.6035634847357869
13	22	n/a	n/a	n/a	j	6	0.02000000000000001	2	j	1	0.4649627176113427
13	23	n/a	n/a	n/a	j	6	0.03000000000000001	0	j	1	0.6038896352984011
13	24	n/a	n/a	n/a	j	6	0.04000000000000001	1	j	1	0.5592705276794732
13	25	n/a	n/a	n/a	f	6	0.03000000000000001	1	f	1	0.5377217559143901
13	26	n/a	n/a	n/a	j	6	0.02000000000000001	0	j	1	0.5266779526136816
13	27	n/a	n/a	n/a	j	6	0.03000000000000001	0	j	1	0.6028527379967272
13	28	n/a	n/a	n/a	j	6	0.04000000000000001	1	j	1	0.6264892751350999
13	29	n/a	n/a	n/a	f	6	0.03000000000000001	2	f	1	0.5925812628120184
13	30	n/a	n/a	n/a	j	6	0.04000000000000001	1	j	1	0.6050887536257505
13	31	n/a	n/a	n/a	j	6	0.03000000000000001	1	j	1	0.5686219953931868
13	32	n/a	n/a	n/a	j	6	0.02000000000000001	1	j	1	0.643547770101577
13	33	n/a	n/a	n/a	f	6	0.01000000000000001	2	f	1	0.5713900020346045
13	34	n/a	n/a	n/a	j	6	0.02000000000000001	1	j	1	0.5125659359619021
13	35	n/a	n/a	n/a	j	6	0.01000000000000001	0	j	1	0.5913864211179316
13	36	n/a	n/a	n/a	j	6	0.02000000000000001	1	j	1	0.5601617409847677
13	37	n/a	n/a	n/a	f	6	0.01000000000000001	0	f	1	0.5313233234919608
13	38	n/a	n/a	n/a	j	6	0.02000000000000001	0	j	1	0.5293236528523266
13	39	n/a	n/a	n/a	j	6	0.03000000000000001	0	j	1	0.6622569761238992
13	40	n/a	n/a	n/a	j	6	0.04000000000000001	2	j	1	0.6691996585577726
13	41	n/a	n/a	n/a	f	6	0.05000000000000002	2	f	1	0.6341982986778021
13	42	n/a	n/a	n/a	j	6	0.06000000000000002	1	j	1	0.6197299105115235
13	43	n/a	n/a	n/a	j	6	0.05000000000000002	1	j	1	0.6062339884229004
13	44	n/a	n/a	n/a	j	6	0.04000000000000001	1	j	1	0.6297821458429098
13	45	n/a	n/a	n/a	f	6	0.03000000000000001	2	f	1	0.6025910186581314
13	46	n/a	n/a	n/a	j	6	0.04000000000000001	1	j	1	0.5270063844509423
13	47	n/a	n/a	n/a	j	6	0.03000000000000001	0	j	1	0.5499703786335886
13	48	n/a	n/a	n/a	j	6	0.04000000000000001	1	j	1	0.6769830919802189
13	49	n/a	n/a	n/a	f	6	0.03000000000000001	2	f	1	0.6448808838613331
13	50	n/a	n/a	n/a	j	6	0.04000000000000001	2	j	1	0.6151127642951906
13	51	n/a	n/a	n/a	j	6	0.05000000000000002	1	j	1	0.6059902301058173
13	52	n/a	n/a	n/a	j	6	0.04000000000000001	1	j	1	0.622487653978169
13	53	n/a	n/a	n/a	f	6	0.03000000000000001	2	f	1	0.6107530607841909
13	54	n/a	n/a	n/a	j	6	0.04000000000000001	1	j	1	0.5227627158164978
13	55	n/a	n/a	n/a	j	6	0.03000000000000001	0	j	1	0.652595323510468
13	56	n/a	n/a	n/a	j	6	0.04000000000000001	2	j	1	0.662237589713186
13	57	n/a	n/a	n/a	f	6	0.05000000000000002	2	f	1	0.6596300923265517
13	58	n/a	n/a	n/a	j	6	0.06000000000000002	2	j	1	0.6336038713343441
13	59	n/a	n/a	n/a	j	6	0.07000000000000002	1	j	1	0.5955399996601045
13	60	n/a	n/a	n/a	j	6	0.06000000000000002	1	j	1	0.6355074644088745
13	61	n/a	n/a	n/a	f	6	0.05000000000000002	1	f	1	0.6283806092105806
13	62	n/a	n/a	n/a	j	6	0.04000000000000001	2	j	1	0.6173707325942814
13	63	n/a	n/a	n/a	j	6	0.05000000000000002	1	j	1	0.5903458166867495
13	64	n/a	n/a	n/a	j	6	0.04000000000000001	1	j	1	0.6523703821003437
13	65	n/a	n/a	n/a	f	6	0.03000000000000001	2	f	1	0.5802913005463779
13	66	n/a	n/a	n/a	j	6	0.04000000000000001	1	j	1	0.6193347661755979
13	67	n/a	n/a	n/a	j	6	0.03000000000000001	2	j	1	0.5633750697597861
13	68	n/a	n/a	n/a	j	6	0.04000000000000001	1	j	1	0.6758669372648001
13	69	n/a	n/a	n/a	f	6	0.03000000000000001	2	f	1	0.5930060571990907
13	70	n/a	n/a	n/a	j	6	0.04000000000000001	1	j	1	0.5998549428768456
13	71	n/a	n/a	n/a	j	6	0.03000000000000001	1	j	1	0.5717865717597306
14	0	f	0	0.5123680783435702	f	5	1.040834085586084e-17	1	j	0	0.6449210825376213
14	1	n/a	n/a	n/a	j	5	0.01000000000000001	1	f	0	0.6025707768276334
14	2	n/a	n/a	n/a	f	5	0.02000000000000001	2	f	1	0.7439848808571696
14	3	n/a	n/a	n/a	f	5	0.03000000000000001	2	f	1	0.6027903016656637
14	4	n/a	n/a	n/a	f	5	0.04000000000000001	1	f	1	0.6297316839918494
14	5	n/a	n/a	n/a	j	5	0.03000000000000001	2	j	1	0.6058128997683525
14	6	n/a	n/a	n/a	f	5	0.04000000000000001	1	f	1	0.5798445539548993
14	7	n/a	n/a	n/a	f	5	0.03000000000000001	1	f	1	0.5798379965126514
14	8	n/a	n/a	n/a	f	5	0.02000000000000001	1	f	1	0.6096719731576741
14	9	n/a	n/a	n/a	j	5	0.01000000000000001	2	j	1	0.5935688386671245
14	10	n/a	n/a	n/a	f	5	0.02000000000000001	1	f	1	0.6546152359806001
14	11	n/a	n/a	n/a	f	5	0.01000000000000001	2	f	1	0.5645402609370649
14	12	n/a	n/a	n/a	f	5	0.02000000000000001	1	f	1	0.5846447320654988
14	13	n/a	n/a	n/a	j	5	0.01000000000000001	1	j	1	0.6043971083126962
14	14	n/a	n/a	n/a	f	5	1.040834085586084e-17	2	f	1	0.5233813761733472
14	15	n/a	n/a	n/a	f	5	0.01000000000000001	0	f	1	0.6094133900478482
14	16	n/a	n/a	n/a	f	5	0.02000000000000001	1	f	1	0.6554289027117193
14	17	n/a	n/a	n/a	j	5	0.01000000000000001	2	j	1	0.6233264091424644
14	18	n/a	n/a	n/a	f	5	0.02000000000000001	2	f	1	0.5968953506089747
14	19	n/a	n/a	n/a	f	5	0.03000000000000001	1	f	1	0.6062892973423004
14	20	n/a	n/a	n/a	f	5	0.02000000000000001	1	f	1	0.5721982521936297
14	21	n/a	n/a	n/a	j	5	0.01000000000000001	0	j	1	0.5731453439220786
14	22	n/a	n/a	n/a	f	5	0.02000000000000001	1	f	1	0.5784837859682739
14	23	n/a	n/a	n/a	f	5	0.01000000000000001	0	f	1	0.6631142632104456
14	24	n/a	n/a	n/a	f	5	0.02000000000000001	2	f	1	0.6501175458543003
14	25	n/a	n/a	n/a	j	5	0.03000000000000001	2	j	1	0.6164760980755091
14	26	n/a	n/a	n/a	f	5	0.04000000000000001	1	f	1	0.5880371010862291
14	27	n/a	n/a	n/a	f	5	0.03000000000000001	1	f	1	0.6260145888663828
14	28	n/a	n/a	n/a	f	5	0.02000000000000001	2	f	1	0.6170782232657075
14	29	n/a	n/a	n/a	j	5	0.03000000000000001	1	j	1	0.6153197446838021
14	30	n/a	n/a	n/a	f	5	0.02000000000000001	2	f	1	0.5887498441152275
14	31	n/a	n/a	n/a	f	5	0.03000000000000001	1	f	1	0.6178565379232168
14	32	n/a	n/a	n/a	f	5	0.02000000000000001	2	f	1	0.6189652802422643
14	33	n/a	n/a	n/a	j	5	0.03000000000000001	2	j	1	0.6038026809692383
14	34	n/a	n/a	n/a	f	5	0.04000000000000001	1	f	1	0.5213021636009216
14	35	n/a	n/a	n/a	f	5	0.03000000000000001	0	f	1	0.6366404392756522
14	36	n/a	n/a	n/a	f	5	0.04000000000000001	2	f	1	0.6186773320659995
14	37	n/a	n/a	n/a	j	5	0.05000000000000002	1	j	1	0.6357195763848722
14	38	n/a	n/a	n/a	f	5	0.04000000000000001	2	f	1	0.6266221306286752
14	39	n/a	n/a	n/a	f	5	0.05000000000000002	1	f	1	0.615526725538075
14	40	n/a	n/a	n/a	f	5	0.04000000000000001	1	f	1	0.6462020231410861
14	41	n/a	n/a	n/a	j	5	0.03000000000000001	2	j	1	0.6144938189536333
14	42	n/a	n/a	n/a	f	5	0.04000000000000001	1	f	1	0.5985417859628797
14	43	n/a	n/a	n/a	f	5	0.03000000000000001	1	f	1	0.5875022592954338
14	44	n/a	n/a	n/a	f	5	0.02000000000000001	1	f	1	0.6114124902524054
14	45	n/a	n/a	n/a	j	5	0.01000000000000001	2	j	1	0.5873235035687685
14	46	n/a	n/a	n/a	f	5	0.02000000000000001	1	f	1	0.6084506176412106
14	47	n/a	n/a	n/a	f	5	0.01000000000000001	2	f	1	0.59325494710356
14	48	n/a	n/a	n/a	f	5	0.02000000000000001	1	f	1	0.5512096951715648
14	49	n/a	n/a	n/a	j	5	0.01000000000000001	0	j	1	0.6602963642217219
14	50	n/a	n/a	n/a	f	5	0.02000000000000001	2	f	1	0.6371909617446363
14	51	n/a	n/a	n/a	f	5	0.03000000000000001	2	f	1	0.5731493355706334
14	52	n/a	n/a	n/a	f	5	0.04000000000000001	1	f	1	0.651169553399086
14	53	n/a	n/a	n/a	j	5	0.03000000000000001	2	j	1	0.6172324605286121
14	54	n/a	n/a	n/a	f	5	0.04000000000000001	1	f	1	0.6150531792081892
14	55	n/a	n/a	n/a	f	5	0.03000000000000001	1	f	1	0.5831023575738072
14	56	n/a	n/a	n/a	f	5	0.02000000000000001	1	f	1	0.6539218798279762
14	57	n/a	n/a	n/a	j	5	0.01000000000000001	2	j	1	0.5889069326221943
14	58	n/a	n/a	n/a	f	5	0.02000000000000001	1	f	1	0.6410446180962026
14	59	n/a	n/a	n/a	f	5	0.01000000000000001	2	f	1	0.5767911644652486
14	60	n/a	n/a	n/a	f	5	0.02000000000000001	1	f	1	0.6358068156987429
14	61	n/a	n/a	n/a	j	5	0.01000000000000001	2	j	1	0.6145571102388203
14	62	n/a	n/a	n/a	f	5	0.02000000000000001	2	f	1	0.6349597927182913
14	63	n/a	n/a	n/a	f	5	0.03000000000000001	2	f	1	0.5473352265544236
14	64	n/a	n/a	n/a	f	5	0.04000000000000001	1	f	1	0.6499345130287111
14	65	n/a	n/a	n/a	j	5	0.03000000000000001	2	j	1	0.6155341379344463
14	66	n/a	n/a	n/a	f	5	0.04000000000000001	1	f	1	0.6247290866449475
14	67	n/a	n/a	n/a	f	5	0.03000000000000001	2	f	1	0.5675400518812239
14	68	n/a	n/a	n/a	f	5	0.04000000000000001	1	f	1	0.6315939375199378
14	69	n/a	n/a	n/a	j	5	0.03000000000000001	2	j	1	0.6374669359065592
14	70	n/a	n/a	n/a	f	5	0.04000000000000001	2	f	1	0.6002831584773958
14	71	n/a	n/a	n/a	f	5	0.05000000000000002	1	f	1	0.5733816893771291
15	0	f	1	0.09315886907279491	f	3	0.04000000000000001	2	f	1	0.4706050725653768
15	1	n/a	n/a	n/a	f	3	0.05000000000000002	2	f	1	0.3885860838927329
15	2	n/a	n/a	n/a	j	3	0.06000000000000002	1	j	1	0.4660934126004577
15	3	n/a	n/a	n/a	f	3	0.05000000000000002	2	f	1	0.4516253094188869
15	4	n/a	n/a	n/a	f	3	0.06000000000000002	2	f	1	0.4151958986185491
15	5	n/a	n/a	n/a	f	3	0.07000000000000002	1	f	1	0.4314581174403429
15	6	n/a	n/a	n/a	f	3	0.06000000000000002	1	f	1	0.448607842437923
15	7	n/a	n/a	n/a	f	3	0.05000000000000002	2	f	1	0.414440106600523
15	8	n/a	n/a	n/a	j	3	0.06000000000000002	1	j	1	0.422914044931531
15	9	n/a	n/a	n/a	f	3	0.05000000000000002	1	f	1	0.4434016863815486
15	10	n/a	n/a	n/a	f	3	0.04000000000000001	2	f	1	0.4104216643609107
15	11	n/a	n/a	n/a	f	3	0.05000000000000002	1	f	1	0.4253573263995349
15	12	n/a	n/a	n/a	f	3	0.04000000000000001	1	f	1	0.4280055924318731
15	13	n/a	n/a	n/a	f	3	0.03000000000000001	2	f	1	0.4578868951648474
15	14	n/a	n/a	n/a	j	3	0.04000000000000001	2	j	1	0.4012840199284256
15	15	n/a	n/a	n/a	f	3	0.05000000000000002	1	f	1	0.409171799197793
15	16	n/a	n/a	n/a	f	3	0.04000000000000001	1	f	1	0.4323561727069318
15	17	n/a	n/a	n/a	f	3	0.03000000000000001	2	f	1	0.4189420733600855
15	18	n/a	n/a	n/a	f	3	0.04000000000000001	1	f	1	0.428796736523509
15	19	n/a	n/a	n/a	f	3	0.03000000000000001	2	f	1	0.430280951783061
15	20	n/a	n/a	n/a	j	3	0.04000000000000001	2	j	1	0.3999132737517357
15	21	n/a	n/a	n/a	f	3	0.05000000000000002	1	f	1	0.4601177792064846
15	22	n/a	n/a	n/a	f	3	0.04000000000000001	2	f	1	0.4216704517602921
15	23	n/a	n/a	n/a	f	3	0.05000000000000002	1	f	1	0.4241547868587077
15	24	n/a	n/a	n/a	f	3	0.04000000000000001	1	f	1	0.4210922750644386
15	25	n/a	n/a	n/a	f	3	0.03000000000000001	2	f	1	0.4259554599411786
15	26	n/a	n/a	n/a	j	3	0.04000000000000001	2	j	1	0.3692371202632785
15	27	n/a	n/a	n/a	f	3	0.05000000000000002	1	f	1	0.4630548488348722
15	28	n/a	n/a	n/a	f	3	0.04000000000000001	2	f	1	0.4009359162300825
15	29	n/a	n/a	n/a	f	3	0.05000000000000002	1	f	1	0.4331572954542935
15	30	n/a	n/a	n/a	f	3	0.04000000000000001	2	f	1	0.4704588181339204
15	31	n/a	n/a	n/a	f	3	0.05000000000000002	2	f	1	0.4049095986410975
15	32	n/a	n/a	n/a	j	3	0.06000000000000002	1	j	1	0.3800719473510981
15	33	n/a	n/a	n/a	f	3	0.05000000000000002	1	f	1	0.4399608508683741
15	34	n/a	n/a	n/a	f	3	0.04000000000000001	2	f	1	0.4047482335008681
15	35	n/a	n/a	n/a	f	3	0.05000000000000002	1	f	1	0.394339342135936
15	36	n/a	n/a	n/a	f	3	0.04000000000000001	1	f	1	0.4038025666959584
15	37	n/a	n/a	n/a	f	3	0.03000000000000001	1	f	1	0.4045620653778315
15	38	n/a	n/a	n/a	j	3	0.02000000000000001	1	j	1	0.3806655188091099
15	39	n/a	n/a	n/a	f	3	0.01000000000000001	1	f	1	0.3992914771661162
15	40	n/a	n/a	n/a	f	3	1.040834085586084e-17	2	f	1	0.4043428259901702
15	41	n/a	n/a	n/a	f	3	0.01000000000000001	2	f	1	0.3936428497545421
15	42	n/a	n/a	n/a	f	3	0.02000000000000001	1	f	1	0.3847013525664806
15	43	n/a	n/a	n/a	f	3	0.01000000000000001	1	f	1	0.383699806407094
15	44	n/a	n/a	n/a	j	3	1.040834085586084e-17	0	j	1	0.3785723368637264
15	45	n/a	n/a	n/a	f	3	0.01000000000000001	1	f	1	0.3876717779785395
15	46	n/a	n/a	n/a	f	3	1.040834085586084e-17	2	f	1	0.419549900572747
15	47	n/a	n/a	n/a	f	3	0.01000000000000001	2	f	1	0.4025387321598828
15	48	n/a	n/a	n/a	f	3	0.02000000000000001	1	f	1	0.4064077832736075
15	49	n/a	n/a	n/a	f	3	0.01000000000000001	2	f	1	0.4291032161563635
15	50	n/a	n/a	n/a	j	3	0.02000000000000001	2	j	1	0.3951136656105518
15	51	n/a	n/a	n/a	f	3	0.03000000000000001	1	f	1	0.3853496629744768
15	52	n/a	n/a	n/a	f	3	0.02000000000000001	1	f	1	0.4058250449597836
15	53	n/a	n/a	n/a	f	3	0.01000000000000001	2	f	1	0.3960159975104034
15	54	n/a	n/a	n/a	f	3	0.02000000000000001	1	f	1	0.3903588177636266
15	55	n/a	n/a	n/a	f	3	0.01000000000000001	1	f	1	0.4057888379320502
15	56	n/a	n/a	n/a	j	3	1.040834085586084e-17	2	j	1	0.3893515695817769
15	57	n/a	n/a	n/a	f	3	0.01000000000000001	1	f	1	0.4042929336428642
15	58	n/a	n/a	n/a	f	3	1.040834085586084e-17	2	f	1	0.4083179333247244
15	59	n/a	n/a	n/a	f	3	0.01000000000000001	2	f	1	0.3771956036798656
15	60	n/a	n/a	n/a	f	3	0.02000000000000001	1	f	1	0.4002211783081293
15	61	n/a	n/a	n/a	f	3	0.01000000000000001	2	f	1	0.3971424154005945
15	62	n/a	n/a	n/a	j	3	0.02000000000000001	1	j	1	0.392133261077106
15	63	n/a	n/a	n/a	f	3	0.01000000000000001	1	f	1	0.3830229858867824
15	64	n/a	n/a	n/a	f	3	1.040834085586084e-17	0	f	1	0.4232094055041671
15	65	n/a	n/a	n/a	f	3	0.01000000000000001	2	f	1	0.3931282497942448
15	66	n/a	n/a	n/a	f	3	0.02000000000000001	1	f	1	0.4179733134806156
15	67	n/a	n/a	n/a	f	3	0.01000000000000001	2	f	1	0.3696231413632631
15	68	n/a	n/a	n/a	j	3	0.02000000000000001	1	j	1	0.3786481725983322
15	69	n/a	n/a	n/a	f	3	0.01000000000000001	1	f	1	0.3659337013959885
15	70	n/a	n/a	n/a	f	3	1.040834085586084e-17	0	f	1	0.4137752600945532
15	71	n/a	n/a	n/a	f	3	0.01000000000000001	2	f	1	0.3828268391080201
16	0	f	1	0.09452933073043823	f	7	0.02000000000000001	0	f	1	0.6228075325489044
16	1	n/a	n/a	n/a	f	7	0.03000000000000001	2	f	1	0.6097674802877009
16	2	n/a	n/a	n/a	j	7	0.04000000000000001	1	j	1	0.6329358890652657
16	3	n/a	n/a	n/a	f	7	0.03000000000000001	2	f	1	0.5769402701407671
16	4	n/a	n/a	n/a	f	7	0.04000000000000001	1	f	1	0.6127128177322447
16	5	n/a	n/a	n/a	f	7	0.03000000000000001	1	f	1	0.5937022641301155
16	6	n/a	n/a	n/a	f	7	0.02000000000000001	1	f	1	0.6014266824349761
16	7	n/a	n/a	n/a	f	7	0.01000000000000001	2	f	1	0.61463095061481
16	8	n/a	n/a	n/a	j	7	0.02000000000000001	2	j	1	0.5716309086419642
16	9	n/a	n/a	n/a	f	7	0.03000000000000001	1	f	1	0.5505451341159642
16	10	n/a	n/a	n/a	f	7	0.02000000000000001	0	f	1	0.5135158789344132
16	11	n/a	n/a	n/a	f	7	0.03000000000000001	0	f	1	0.5285376403480768
16	12	n/a	n/a	n/a	f	7	0.04000000000000001	0	f	1	0.6065381867811084
16	13	n/a	n/a	n/a	f	7	0.05000000000000002	1	f	1	0.5164170260541141
16	14	n/a	n/a	n/a	j	7	0.04000000000000001	0	j	1	0.5605677193962038
16	15	n/a	n/a	n/a	f	7	0.05000000000000002	1	f	1	0.5605446263216436
16	16	n/a	n/a	n/a	f	7	0.04000000000000001	1	f	1	0.5537025830708444
16	17	n/a	n/a	n/a	f	7	0.03000000000000001	0	f	1	0.5216953121125698
16	18	n/a	n/a	n/a	f	7	0.04000000000000001	0	f	1	0.5684070321731269
16	19	n/a	n/a	n/a	f	7	0.05000000000000002	1	f	1	0.5321894478984177
16	20	n/a	n/a	n/a	j	7	0.04000000000000001	0	j	1	0.6400869772769511
16	21	n/a	n/a	n/a	f	7	0.05000000000000002	2	f	1	0.6118019325658679
16	22	n/a	n/a	n/a	f	7	0.06000000000000002	1	f	1	0.6021265955641866
16	23	n/a	n/a	n/a	f	7	0.05000000000000002	1	f	1	0.6020225351676345
16	24	n/a	n/a	n/a	f	7	0.04000000000000001	1	f	1	0.6070271283388138
16	25	n/a	n/a	n/a	f	7	0.03000000000000001	1	f	1	0.5620399601757526
16	26	n/a	n/a	n/a	j	7	0.02000000000000001	0	j	1	0.6060612197034061
16	27	n/a	n/a	n/a	f	7	0.03000000000000001	1	f	1	0.5811149459332228
16	28	n/a	n/a	n/a	f	7	0.02000000000000001	1	f	1	0.5557156531140208
16	29	n/a	n/a	n/a	f	7	0.01000000000000001	0	f	1	0.5728402906097472
16	30	n/a	n/a	n/a	f	7	0.02000000000000001	1	f	1	0.5600280310027301
16	31	n/a	n/a	n/a	f	7	0.01000000000000001	0	f	1	0.5388188087381423
16	32	n/a	n/a	n/a	j	7	0.02000000000000001	0	j	1	0.5296911429613829
16	33	n/a	n/a	n/a	f	7	0.03000000000000001	0	f	1	0.5487917875871062
16	34	n/a	n/a	n/a	f	7	0.04000000000000001	1	f	1	0.5972753851674497
16	35	n/a	n/a	n/a	f	7	0.03000000000000001	1	f	1	0.6424395977519453
16	36	n/a	n/a	n/a	f	7	0.02000000000000001	2	f	1	0.5796432751230896
16	37	n/a	n/a	n/a	f	7	0.03000000000000001	1	f	1	0.601090838201344
16	38	n/a	n/a	n/a	j	7	0.02000000000000001	1	j	1	0.4946048241108656
16	39	n/a	n/a	n/a	f	7	0.01000000000000001	0	f	1	0.5655281222425401
16	40	n/a	n/a	n/a	f	7	0.02000000000000001	1	f	1	0.4895178382284939
16	41	n/a	n/a	n/a	f	7	0.01000000000000001	0	f	1	0.5838441797532141
16	42	n/a	n/a	n/a	f	7	0.02000000000000001	1	f	1	0.5737041346728802
16	43	n/a	n/a	n/a	f	7	0.01000000000000001	0	f	1	0.6054987232200801
16	44	n/a	n/a	n/a	j	7	0.02000000000000001	1	j	1	0.5563759380020201
16	45	n/a	n/a	n/a	f	7	0.01000000000000001	0	f	1	0.5253385668620467
16	46	n/a	n/a	n/a	f	7	0.02000000000000001	0	f	1	0.61034195125103
16	47	n/a	n/a	n/a	f	7	0.03000000000000001	1	f	1	0.6004850072786212
16	48	n/a	n/a	n/a	f	7	0.02000000000000001	1	f	1	0.6218228074721992
16	49	n/a	n/a	n/a	f	7	0.01000000000000001	2	f	1	0.5792116383090615
16	50	n/a	n/a	n/a	j	7	0.02000000000000001	1	j	1	0.5373650989495218
16	51	n/a	n/a	n/a	f	7	0.01000000000000001	0	f	1	0.5581401181407273
16	52	n/a	n/a	n/a	f	7	0.02000000000000001	0	f	1	0.5242067319341004
16	53	n/a	n/a	n/a	f	7	0.03000000000000001	0	f	1	0.608040648046881
16	54	n/a	n/a	n/a	f	7	0.04000000000000001	1	f	1	0.671096979174763
16	55	n/a	n/a	n/a	f	7	0.03000000000000001	2	f	1	0.5790345929563046
16	56	n/a	n/a	n/a	j	7	0.04000000000000001	1	j	1	0.6038807975128293
16	57	n/a	n/a	n/a	f	7	0.03000000000000001	1	f	1	0.5959821850992739
16	58	n/a	n/a	n/a	f	7	0.02000000000000001	1	f	1	0.6120679285377264
16	59	n/a	n/a	n/a	f	7	0.01000000000000001	2	f	1	0.5969569315202534
16	60	n/a	n/a	n/a	f	7	0.02000000000000001	1	f	1	0.5568372248671949
16	61	n/a	n/a	n/a	f	7	0.01000000000000001	0	f	1	0.6275481260381639
16	62	n/a	n/a	n/a	j	7	0.02000000000000001	2	j	1	0.511913918890059
16	63	n/a	n/a	n/a	f	7	0.03000000000000001	0	f	1	0.5983884036540985
16	64	n/a	n/a	n/a	f	7	0.04000000000000001	1	f	1	0.5770126851275563
16	65	n/a	n/a	n/a	f	7	0.03000000000000001	1	f	1	0.5837988494895399
16	66	n/a	n/a	n/a	f	7	0.02000000000000001	1	f	1	0.5702014323323965
16	67	n/a	n/a	n/a	f	7	0.01000000000000001	0	f	1	0.5183770684525371
16	68	n/a	n/a	n/a	j	7	0.02000000000000001	0	j	1	0.5815326129086316
16	69	n/a	n/a	n/a	f	7	0.03000000000000001	1	f	1	0.6115661575458944
16	70	n/a	n/a	n/a	f	7	0.02000000000000001	2	f	1	0.5856921784579754
16	71	n/a	n/a	n/a	f	7	0.03000000000000001	1	f	1	0.5345289539545774
17	0	j	1	0.3323016623035073	j	4	0.02000000000000001	2	j	1	0.3856424572877586
17	1	n/a	n/a	n/a	j	4	0.03000000000000001	1	j	1	0.3848758321255445
17	2	n/a	n/a	n/a	f	4	0.02000000000000001	1	f	1	0.3575290418229997
17	3	n/a	n/a	n/a	j	4	0.01000000000000001	0	j	1	0.3635474392212927
17	4	n/a	n/a	n/a	j	4	0.02000000000000001	0	j	1	0.4103107615374029
17	5	n/a	n/a	n/a	j	4	0.03000000000000001	1	j	1	0.3634778754785657
17	6	n/a	n/a	n/a	j	4	0.02000000000000001	0	j	1	0.3794897790066898
17	7	n/a	n/a	n/a	j	4	0.03000000000000001	1	j	1	0.3699920573271811
17	8	n/a	n/a	n/a	f	4	0.02000000000000001	1	f	1	0.3834198415279388
17	9	n/a	n/a	n/a	j	4	0.01000000000000001	1	j	1	0.354235886130482
17	10	n/a	n/a	n/a	j	4	1.040834085586084e-17	0	j	1	0.3934780638664961
17	11	n/a	n/a	n/a	j	4	0.01000000000000001	1	j	1	0.3743788450956345
17	12	n/a	n/a	n/a	j	4	1.040834085586084e-17	0	j	1	0.3583652311936021
17	13	n/a	n/a	n/a	j	4	0.01000000000000001	0	j	1	0.3853616369888186
17	14	n/a	n/a	n/a	f	4	0.02000000000000001	1	f	1	0.3218713882379234
17	15	n/a	n/a	n/a	j	4	0.01000000000000001	0	j	1	0.3581747864373028
17	16	n/a	n/a	n/a	j	4	0.02000000000000001	0	j	1	0.4468633341602981
17	17	n/a	n/a	n/a	j	4	0.03000000000000001	2	j	1	0.3534980546683073
17	18	n/a	n/a	n/a	j	4	0.04000000000000001	1	j	1	0.4323835419490933
17	19	n/a	n/a	n/a	j	4	0.03000000000000001	2	j	1	0.4092596089467406
17	20	n/a	n/a	n/a	f	4	0.04000000000000001	1	f	1	0.3658798178657889
17	21	n/a	n/a	n/a	j	4	0.03000000000000001	1	j	1	0.3803097177296877
17	22	n/a	n/a	n/a	j	4	0.02000000000000001	1	j	1	0.3771602511405945
17	23	n/a	n/a	n/a	j	4	0.01000000000000001	0	j	1	0.3720450405962765
17	24	n/a	n/a	n/a	j	4	0.02000000000000001	1	j	1	0.3731703185476363
17	25	n/a	n/a	n/a	j	4	0.01000000000000001	0	j	1	0.4049064628779888
17	26	n/a	n/a	n/a	f	4	0.02000000000000001	2	f	1	0.3522037146613002
17	27	n/a	n/a	n/a	j	4	0.03000000000000001	0	j	1	0.353548516985029
17	28	n/a	n/a	n/a	j	4	0.04000000000000001	1	j	1	0.3601445215754211
17	29	n/a	n/a	n/a	j	4	0.03000000000000001	1	j	1	0.3831489994190633
17	30	n/a	n/a	n/a	j	4	0.02000000000000001	1	j	1	0.3680864688940346
17	31	n/a	n/a	n/a	j	4	0.01000000000000001	0	j	1	0.40152578195557
17	32	n/a	n/a	n/a	f	4	0.02000000000000001	1	f	1	0.3109387732110918
17	33	n/a	n/a	n/a	j	4	0.01000000000000001	0	j	1	0.4150331085547805
17	34	n/a	n/a	n/a	j	4	0.02000000000000001	2	j	1	0.3756349822506309
17	35	n/a	n/a	n/a	j	4	0.03000000000000001	1	j	1	0.372869826387614
17	36	n/a	n/a	n/a	j	4	0.02000000000000001	1	j	1	0.3808551086112857
17	37	n/a	n/a	n/a	j	4	0.01000000000000001	1	j	1	0.3795658997260034
17	38	n/a	n/a	n/a	f	4	1.040834085586084e-17	0	f	1	0.3853630623780191
17	39	n/a	n/a	n/a	j	4	0.01000000000000001	1	j	1	0.3907819013111293
17	40	n/a	n/a	n/a	j	4	1.040834085586084e-17	2	j	1	0.3827900616452098
17	41	n/a	n/a	n/a	j	4	0.01000000000000001	1	j	1	0.3817905122414231
17	42	n/a	n/a	n/a	j	4	1.040834085586084e-17	0	j	1	0.3626502389088273
17	43	n/a	n/a	n/a	j	4	0.01000000000000001	0	j	1	0.4176286314614117
17	44	n/a	n/a	n/a	f	4	0.02000000000000001	2	f	1	0.3844362120144069
17	45	n/a	n/a	n/a	j	4	0.03000000000000001	1	j	1	0.3687661401927471
17	46	n/a	n/a	n/a	j	4	0.02000000000000001	1	j	1	0.3385136411525309
17	47	n/a	n/a	n/a	j	4	0.01000000000000001	0	j	1	0.3997655929997563
17	48	n/a	n/a	n/a	j	4	0.02000000000000001	1	j	1	0.405090635176748
17	49	n/a	n/a	n/a	j	4	0.01000000000000001	2	j	1	0.3786014164797962
17	50	n/a	n/a	n/a	f	4	0.02000000000000001	1	f	1	0.3923516455106437
17	51	n/a	n/a	n/a	j	4	0.01000000000000001	2	j	1	0.3856053948402405
17	52	n/a	n/a	n/a	j	4	0.02000000000000001	1	j	1	0.3655074811540544
17	53	n/a	n/a	n/a	j	4	0.01000000000000001	0	j	1	0.388484304305166
17	54	n/a	n/a	n/a	j	4	0.02000000000000001	1	j	1	0.3734534201212227
17	55	n/a	n/a	n/a	j	4	0.01000000000000001	0	j	1	0.3959028138779104
17	56	n/a	n/a	n/a	f	4	0.02000000000000001	1	f	1	0.3944120411761105
17	57	n/a	n/a	n/a	j	4	0.01000000000000001	1	j	1	0.3898778590373695
17	58	n/a	n/a	n/a	j	4	1.040834085586084e-17	2	j	1	0.3813785468228161
17	59	n/a	n/a	n/a	j	4	0.01000000000000001	1	j	1	0.3723113215528429
17	60	n/a	n/a	n/a	j	4	1.040834085586084e-17	0	j	1	0.3862240551970899
17	61	n/a	n/a	n/a	j	4	0.01000000000000001	1	j	1	0.3753022737801075
17	62	n/a	n/a	n/a	f	4	1.040834085586084e-17	0	f	1	0.380187411326915
17	63	n/a	n/a	n/a	j	4	0.01000000000000001	1	j	1	0.3928343150764704
17	64	n/a	n/a	n/a	j	4	1.040834085586084e-17	2	j	1	0.3672645343467593
17	65	n/a	n/a	n/a	j	4	0.01000000000000001	0	j	1	0.3912993525154889
17	66	n/a	n/a	n/a	j	4	0.02000000000000001	1	j	1	0.364114782307297
17	67	n/a	n/a	n/a	j	4	0.01000000000000001	0	j	1	0.3957984684966505
17	68	n/a	n/a	n/a	f	4	0.02000000000000001	1	f	1	0.3603138690814376
17	69	n/a	n/a	n/a	j	4	0.01000000000000001	0	j	1	0.3970195390284061
17	70	n/a	n/a	n/a	j	4	0.02000000000000001	1	j	1	0.3751243739388883
17	71	n/a	n/a	n/a	j	4	0.01000000000000001	0	j	1	0.3650376414880157
18	0	f	1	0.07995175011456013	f	1	0.02000000000000001	0	f	1	0.4642439880408347
18	1	n/a	n/a	n/a	j	1	0.03000000000000001	2	j	1	0.4319481989368796
18	2	n/a	n/a	n/a	f	1	0.04000000000000001	2	f	1	0.4313115775585175
18	3	n/a	n/a	n/a	f	1	0.05000000000000002	1	f	1	0.3992604012601078
18	4	n/a	n/a	n/a	f	1	0.04000000000000001	1	f	1	0.440030129160732
18	5	n/a	n/a	n/a	j	1	0.03000000000000001	2	j	1	0.3722537318244576
18	6	n/a	n/a	n/a	f	1	0.04000000000000001	1	f	1	0.3883143868297338
18	7	n/a	n/a	n/a	f	1	0.03000000000000001	1	f	1	0.3623229479417205
18	8	n/a	n/a	n/a	f	1	0.02000000000000001	0	f	1	0.422076715156436
18	9	n/a	n/a	n/a	j	1	0.03000000000000001	2	j	1	0.3470736788585782
18	10	n/a	n/a	n/a	f	1	0.04000000000000001	1	f	1	0.4110357630997896
18	11	n/a	n/a	n/a	f	1	0.03000000000000001	1	f	1	0.3522000079974532
18	12	n/a	n/a	n/a	f	1	0.02000000000000001	0	f	1	0.3878519595600665
18	13	n/a	n/a	n/a	j	1	0.03000000000000001	1	j	1	0.384128877427429
18	14	n/a	n/a	n/a	f	1	0.02000000000000001	1	f	1	0.3771038022823632
18	15	n/a	n/a	n/a	f	1	0.01000000000000001	1	f	1	0.3701343205757439
18	16	n/a	n/a	n/a	f	1	1.040834085586084e-17	0	f	1	0.3949135271832347
18	17	n/a	n/a	n/a	j	1	0.01000000000000001	2	j	1	0.385128712747246
18	18	n/a	n/a	n/a	f	1	0.02000000000000001	1	f	1	0.3725376883521676
18	19	n/a	n/a	n/a	f	1	0.01000000000000001	0	f	1	0.384896928910166
18	20	n/a	n/a	n/a	f	1	0.02000000000000001	1	f	1	0.3716940861195326
18	21	n/a	n/a	n/a	j	1	0.01000000000000001	0	j	1	0.4059567600488663
18	22	n/a	n/a	n/a	f	1	0.02000000000000001	1	f	1	0.3908739876933396
18	23	n/a	n/a	n/a	f	1	0.01000000000000001	1	f	1	0.3957756604067981
18	24	n/a	n/a	n/a	f	1	1.040834085586084e-17	2	f	1	0.4009171002544463
18	25	n/a	n/a	n/a	j	1	0.01000000000000001	2	j	1	0.3986776629462838
18	26	n/a	n/a	n/a	f	1	0.02000000000000001	1	f	1	0.3608757951296866
18	27	n/a	n/a	n/a	f	1	0.01000000000000001	0	f	1	0.4046997670084238
18	28	n/a	n/a	n/a	f	1	0.02000000000000001	1	f	1	0.9790658969432116
18	29	n/a	n/a	n/a	j	1	0.01000000000000001	2	j	1	0.3916386174969375
18	30	n/a	n/a	n/a	f	1	0.02000000000000001	1	f	1	0.4061072911135852
18	31	n/a	n/a	n/a	f	1	0.01000000000000001	2	f	1	0.402534740511328
18	32	n/a	n/a	n/a	f	1	0.02000000000000001	1	f	1	0.4903828226961195
18	33	n/a	n/a	n/a	j	1	0.01000000000000001	2	j	1	0.4154567625373602
18	34	n/a	n/a	n/a	f	1	0.02000000000000001	2	f	1	0.4386938791722059
18	35	n/a	n/a	n/a	f	1	0.03000000000000001	2	f	1	0.3894490730017424
18	36	n/a	n/a	n/a	f	1	0.04000000000000001	1	f	1	0.379562193993479
18	37	n/a	n/a	n/a	j	1	0.03000000000000001	1	j	1	0.3624589387327433
18	38	n/a	n/a	n/a	f	1	0.02000000000000001	0	f	1	0.4249713052995503
18	39	n/a	n/a	n/a	f	1	0.03000000000000001	2	f	1	0.3944553765468299
18	40	n/a	n/a	n/a	f	1	0.04000000000000001	1	f	1	0.433602046687156
18	41	n/a	n/a	n/a	j	1	0.03000000000000001	2	j	1	0.3423102777451277
18	42	n/a	n/a	n/a	f	1	0.04000000000000001	0	f	1	0.4432651246897876
18	43	n/a	n/a	n/a	f	1	0.05000000000000002	2	f	1	0.3855190104804933
18	44	n/a	n/a	n/a	f	1	0.06000000000000002	1	f	1	0.4042855212464929
18	45	n/a	n/a	n/a	j	1	0.05000000000000002	1	j	1	0.3802304607816041
18	46	n/a	n/a	n/a	f	1	0.04000000000000001	1	f	1	0.370226691942662
18	47	n/a	n/a	n/a	f	1	0.03000000000000001	1	f	1	0.3937868238426745
18	48	n/a	n/a	n/a	f	1	0.02000000000000001	1	f	1	0.3752957168035209
18	49	n/a	n/a	n/a	j	1	0.01000000000000001	0	j	1	0.3587957276031375
18	50	n/a	n/a	n/a	f	1	0.02000000000000001	0	f	1	0.433286159299314
18	51	n/a	n/a	n/a	f	1	0.03000000000000001	2	f	1	0.3670581239275634
18	52	n/a	n/a	n/a	f	1	0.04000000000000001	1	f	1	0.383062329608947
18	53	n/a	n/a	n/a	j	1	0.03000000000000001	1	j	1	0.4130074940621853
18	54	n/a	n/a	n/a	f	1	0.02000000000000001	2	f	1	0.3869821284897625
18	55	n/a	n/a	n/a	f	1	0.03000000000000001	1	f	1	0.3601687545888126
18	56	n/a	n/a	n/a	f	1	0.02000000000000001	0	f	1	0.3660919303074479
18	57	n/a	n/a	n/a	j	1	0.03000000000000001	1	j	1	0.4050147994421422
18	58	n/a	n/a	n/a	f	1	0.02000000000000001	1	f	1	0.3719526696950197
18	59	n/a	n/a	n/a	f	1	0.01000000000000001	0	f	1	0.3771123550832272
18	60	n/a	n/a	n/a	f	1	0.02000000000000001	1	f	1	0.3779129073955119
18	61	n/a	n/a	n/a	j	1	0.01000000000000001	1	j	1	0.3769732275977731
18	62	n/a	n/a	n/a	f	1	1.040834085586084e-17	0	f	1	0.3618354317732155
18	63	n/a	n/a	n/a	f	1	0.01000000000000001	0	f	1	0.3808702183887362
18	64	n/a	n/a	n/a	f	1	0.02000000000000001	1	f	1	0.3699381742626429
18	65	n/a	n/a	n/a	j	1	0.01000000000000001	0	j	1	0.3807424954138696
18	66	n/a	n/a	n/a	f	1	0.02000000000000001	1	f	1	0.351006877142936
18	67	n/a	n/a	n/a	f	1	0.01000000000000001	0	f	1	0.3667696053162217
18	68	n/a	n/a	n/a	f	1	0.02000000000000001	0	f	1	0.397726864553988
18	69	n/a	n/a	n/a	j	1	0.03000000000000001	1	j	1	0.3346736691892147
18	70	n/a	n/a	n/a	f	1	0.02000000000000001	0	f	1	0.38762730313465
18	71	n/a	n/a	n/a	f	1	0.03000000000000001	1	f	1	0.3746682181954384
19	0	j	1	0.06439058482646942	j	2	0.02000000000000001	1	j	1	0.4339413121342659
19	1	n/a	n/a	n/a	f	2	0.01000000000000001	2	f	1	0.4054022463969886
19	2	n/a	n/a	n/a	j	2	0.02000000000000001	1	j	1	0.3718557367101312
19	3	n/a	n/a	n/a	j	2	0.01000000000000001	0	j	1	0.3697736728936434
19	4	n/a	n/a	n/a	j	2	0.02000000000000001	1	j	1	0.3611024469137192
19	5	n/a	n/a	n/a	f	2	0.01000000000000001	0	f	1	0.3759360448457301
19	6	n/a	n/a	n/a	j	2	0.02000000000000001	1	j	1	0.3826897079125047
19	7	n/a	n/a	n/a	j	2	0.01000000000000001	1	j	1	0.378712319303304
19	8	n/a	n/a	n/a	j	2	1.040834085586084e-17	0	j	1	0.3459301544353366
19	9	n/a	n/a	n/a	f	2	0.01000000000000001	0	f	1	0.3527619345113635
19	10	n/a	n/a	n/a	j	2	0.02000000000000001	0	j	1	0.3576807132922113
19	11	n/a	n/a	n/a	j	2	0.03000000000000001	0	j	1	0.3814004990272224
19	12	n/a	n/a	n/a	j	2	0.04000000000000001	1	j	1	0.3713465528562665
19	13	n/a	n/a	n/a	f	2	0.03000000000000001	1	f	1	0.4007223788648844
19	14	n/a	n/a	n/a	j	2	0.02000000000000001	1	j	1	0.3306298535317183
19	15	n/a	n/a	n/a	j	2	0.01000000000000001	0	j	1	0.3815567321144044
19	16	n/a	n/a	n/a	j	2	0.02000000000000001	1	j	1	0.3786447513848543
19	17	n/a	n/a	n/a	f	2	0.01000000000000001	1	f	1	0.3601399599574506
19	18	n/a	n/a	n/a	j	2	1.040834085586084e-17	0	j	1	0.3591449712403119
19	19	n/a	n/a	n/a	j	2	0.01000000000000001	0	j	1	0.3854696885682642
19	20	n/a	n/a	n/a	j	2	0.02000000000000001	1	j	1	0.3526151096448302
19	21	n/a	n/a	n/a	f	2	0.01000000000000001	0	f	1	0.3693557209335268
19	22	n/a	n/a	n/a	j	2	0.02000000000000001	1	j	1	0.3663947032764554
19	23	n/a	n/a	n/a	j	2	0.01000000000000001	0	j	1	0.3513994556851685
19	24	n/a	n/a	n/a	j	2	0.02000000000000001	0	j	1	0.383491400629282
19	25	n/a	n/a	n/a	f	2	0.03000000000000001	1	f	1	0.383337733335793
19	26	n/a	n/a	n/a	j	2	0.02000000000000001	1	j	1	0.3823068225756288
19	27	n/a	n/a	n/a	j	2	0.01000000000000001	1	j	1	0.3493011416867375
19	28	n/a	n/a	n/a	j	2	1.040834085586084e-17	0	j	1	0.3872723570093513
19	29	n/a	n/a	n/a	f	2	0.01000000000000001	0	j	0	0.3509387392550707
19	30	n/a	n/a	n/a	j	2	1.040834085586084e-17	0	f	0	0.1982008665800095
19	31	n/a	n/a	n/a	j	2	0.01000000000000001	0	j	1	0.2751294481568038
19	32	n/a	n/a	n/a	j	2	0.02000000000000001	0	j	1	0.4163314402103424
19	33	n/a	n/a	n/a	f	2	0.03000000000000001	1	f	1	0.4531893515959382
19	34	n/a	n/a	n/a	j	2	0.02000000000000001	2	j	1	0.4041848820634186
19	35	n/a	n/a	n/a	j	2	0.03000000000000001	1	j	1	0.4162444854155183
19	36	n/a	n/a	n/a	j	2	0.02000000000000001	2	j	1	0.384261732455343
19	37	n/a	n/a	n/a	f	2	0.03000000000000001	1	f	1	0.3870402881875634
19	38	n/a	n/a	n/a	j	2	0.02000000000000001	1	j	1	0.3932956014759839
19	39	n/a	n/a	n/a	j	2	0.01000000000000001	1	j	1	0.3521350058726966
19	40	n/a	n/a	n/a	j	2	1.040834085586084e-17	0	j	1	0.3916605706326663
19	41	n/a	n/a	n/a	f	2	0.01000000000000001	1	f	1	0.3869285299442708
19	42	n/a	n/a	n/a	j	2	1.040834085586084e-17	2	j	1	0.360071821603924
19	43	n/a	n/a	n/a	j	2	0.01000000000000001	0	j	1	0.3728826558217406
19	44	n/a	n/a	n/a	j	2	0.02000000000000001	1	j	1	0.3795333988964558
19	45	n/a	n/a	n/a	f	2	0.01000000000000001	1	f	1	0.3868216187693179
19	46	n/a	n/a	n/a	j	2	1.040834085586084e-17	0	j	1	0.381815885193646
19	47	n/a	n/a	n/a	j	2	0.01000000000000001	1	j	1	0.3658133903518319
19	48	n/a	n/a	n/a	j	2	1.040834085586084e-17	0	j	1	0.3899183426983654
19	49	n/a	n/a	n/a	f	2	0.01000000000000001	1	f	1	0.387427450157702
19	50	n/a	n/a	n/a	j	2	1.040834085586084e-17	0	j	1	0.3827464417554438
19	51	n/a	n/a	n/a	j	2	0.01000000000000001	1	j	1	0.3617513282224536
19	52	n/a	n/a	n/a	j	2	1.040834085586084e-17	0	j	1	0.3894385239109397
19	53	n/a	n/a	n/a	f	2	0.01000000000000001	1	f	1	0.3647565357387066
19	54	n/a	n/a	n/a	j	2	1.040834085586084e-17	0	j	1	0.3956821486353874
19	55	n/a	n/a	n/a	j	2	0.01000000000000001	1	j	1	0.3558081961236894
19	56	n/a	n/a	n/a	j	2	1.040834085586084e-17	0	j	1	0.3751682783477008
19	57	n/a	n/a	n/a	f	2	0.01000000000000001	0	f	1	0.3825568528845906
19	58	n/a	n/a	n/a	j	2	0.02000000000000001	1	j	1	0.3674122141674161
19	59	n/a	n/a	n/a	j	2	0.01000000000000001	0	j	1	0.3446686002425849
19	60	n/a	n/a	n/a	j	2	0.02000000000000001	0	j	1	0.3656423320062459
19	61	n/a	n/a	n/a	f	2	0.03000000000000001	1	f	1	0.415570231154561
19	62	n/a	n/a	n/a	j	2	0.02000000000000001	2	j	1	0.3432764718309045
19	63	n/a	n/a	n/a	j	2	0.03000000000000001	0	j	1	0.4072040594182909
19	64	n/a	n/a	n/a	j	2	0.04000000000000001	1	j	1	0.3743902486748993
19	65	n/a	n/a	n/a	f	2	0.03000000000000001	1	f	1	0.4216308235190809
19	66	n/a	n/a	n/a	j	2	0.02000000000000001	2	j	1	0.3555789776146412
19	67	n/a	n/a	n/a	j	2	0.03000000000000001	0	j	1	0.3912882334552705
19	68	n/a	n/a	n/a	j	2	0.04000000000000001	1	j	1	0.3773353006690741
19	69	n/a	n/a	n/a	f	2	0.03000000000000001	1	f	1	0.3420559717342257
19	70	n/a	n/a	n/a	j	2	0.02000000000000001	0	j	1	0.3863395201042295
19	71	n/a	n/a	n/a	j	2	0.03000000000000001	1	j	1	0.3330469061620533
20	0	j	1	0.5958484741859138	j	8	0.06000000000000002	0	j	1	0.5972577086649835
20	1	n/a	n/a	n/a	j	8	0.07000000000000002	1	j	1	0.5241864896379411
20	2	n/a	n/a	n/a	f	8	0.06000000000000002	0	f	1	0.5002754032611847
20	3	n/a	n/a	n/a	j	8	0.07000000000000002	0	j	1	0.5151825561188161
20	4	n/a	n/a	n/a	j	8	0.08000000000000002	1	j	1	0.5380735653452575
20	5	n/a	n/a	n/a	j	8	0.07000000000000002	1	j	1	0.5068149589933455
20	6	n/a	n/a	n/a	j	8	0.06000000000000002	0	j	1	0.5390580054372549
20	7	n/a	n/a	n/a	j	8	0.07000000000000002	1	j	1	0.5265188687480986
20	8	n/a	n/a	n/a	f	8	0.06000000000000002	1	f	1	0.4899674360640347
20	9	n/a	n/a	n/a	j	8	0.05000000000000002	0	j	1	0.5110004683956504
20	10	n/a	n/a	n/a	j	8	0.06000000000000002	0	j	1	0.5088234674185514
20	11	n/a	n/a	n/a	j	8	0.07000000000000002	0	j	1	0.5141735975630581
20	12	n/a	n/a	n/a	j	8	0.08000000000000002	1	j	1	0.5148529838770628
20	13	n/a	n/a	n/a	j	8	0.07000000000000002	1	j	1	0.4978740317746997
20	14	n/a	n/a	n/a	f	8	0.06000000000000002	0	f	1	0.5040047578513622
20	15	n/a	n/a	n/a	j	8	0.07000000000000002	0	j	1	0.5327787436544895
20	16	n/a	n/a	n/a	j	8	0.08000000000000002	1	j	1	0.4683587932959199
20	17	n/a	n/a	n/a	j	8	0.07000000000000002	0	j	1	0.5079177138395607
20	18	n/a	n/a	n/a	j	8	0.08000000000000002	1	j	1	0.5157481883652508
20	19	n/a	n/a	n/a	j	8	0.07000000000000002	0	j	1	0.4922821391373873
20	20	n/a	n/a	n/a	f	8	0.08000000000000002	0	f	1	0.5228733331896365
20	21	n/a	n/a	n/a	j	8	0.09000000000000001	1	j	1	0.4687168751843274
20	22	n/a	n/a	n/a	j	8	0.08000000000000002	0	j	1	0.6181444856338203
20	23	n/a	n/a	n/a	j	8	0.09000000000000001	1	j	1	0.6136074522510171
20	24	n/a	n/a	n/a	j	8	0.08000000000000002	1	j	1	0.5786334616132081
20	25	n/a	n/a	n/a	j	8	0.07000000000000002	1	j	1	0.5915896953083575
20	26	n/a	n/a	n/a	f	8	0.06000000000000002	1	f	1	0.5437330259010196
20	27	n/a	n/a	n/a	j	8	0.05000000000000002	1	j	1	0.477449681609869
20	28	n/a	n/a	n/a	j	8	0.04000000000000001	0	j	1	0.5885274680331349
20	29	n/a	n/a	n/a	j	8	0.05000000000000002	1	j	1	0.5514796818606555
20	30	n/a	n/a	n/a	j	8	0.04000000000000001	1	j	1	0.5845144423656166
20	31	n/a	n/a	n/a	j	8	0.03000000000000001	1	j	1	0.5854250425472856
20	32	n/a	n/a	n/a	f	8	0.02000000000000001	1	f	1	0.5968551519326866
20	33	n/a	n/a	n/a	j	8	0.01000000000000001	2	j	1	0.5772233717143536
20	34	n/a	n/a	n/a	j	8	0.02000000000000001	1	j	1	0.6062083295546472
20	35	n/a	n/a	n/a	j	8	0.01000000000000001	2	j	1	0.5751974727027118
20	36	n/a	n/a	n/a	j	8	0.02000000000000001	1	j	1	0.5871062595397234
20	37	n/a	n/a	n/a	j	8	0.01000000000000001	1	j	1	0.6172370221465826
20	38	n/a	n/a	n/a	f	8	1.040834085586084e-17	2	f	1	0.5683220727369189
20	39	n/a	n/a	n/a	j	8	0.01000000000000001	0	j	1	0.4879540810361505
20	40	n/a	n/a	n/a	j	8	0.02000000000000001	0	j	1	0.6219445439055562
20	41	n/a	n/a	n/a	j	8	0.03000000000000001	2	j	1	0.5628832769580185
20	42	n/a	n/a	n/a	j	8	0.04000000000000001	1	j	1	0.5796523983590305
20	43	n/a	n/a	n/a	j	8	0.03000000000000001	1	j	1	0.585464671254158
20	44	n/a	n/a	n/a	f	8	0.02000000000000001	1	f	1	0.5508191119879484
20	45	n/a	n/a	n/a	j	8	0.01000000000000001	0	j	1	0.6057339278049767
20	46	n/a	n/a	n/a	j	8	0.02000000000000001	2	j	1	0.577048322185874
20	47	n/a	n/a	n/a	j	8	0.03000000000000001	1	j	1	0.5907386802136898
20	48	n/a	n/a	n/a	j	8	0.02000000000000001	1	j	1	0.5957409925758839
20	49	n/a	n/a	n/a	j	8	0.01000000000000001	1	f	0	1.112802053336054
20	50	n/a	n/a	n/a	f	8	0.02000000000000001	1	j	0	0.5848117987625301
20	51	n/a	n/a	n/a	j	8	0.03000000000000001	1	f	0	0.8061576960608363
20	52	n/a	n/a	n/a	j	8	0.02000000000000001	2	j	1	0.5259937201626599
20	53	n/a	n/a	n/a	j	8	0.03000000000000001	0	j	1	0.5645508100278676
20	54	n/a	n/a	n/a	j	8	0.04000000000000001	1	j	1	0.5874708988703787
20	55	n/a	n/a	n/a	j	8	0.03000000000000001	1	j	1	0.5851764380931854
20	56	n/a	n/a	n/a	f	8	0.02000000000000001	1	f	1	0.5074604186229408
20	57	n/a	n/a	n/a	j	8	0.01000000000000001	0	j	1	0.5429900633171201
20	58	n/a	n/a	n/a	j	8	0.02000000000000001	0	j	1	0.5063143284060061
20	59	n/a	n/a	n/a	j	8	0.03000000000000001	0	j	1	0.5242554834112525
20	60	n/a	n/a	n/a	j	8	0.04000000000000001	0	j	1	0.6153853172436357
20	61	n/a	n/a	n/a	j	8	0.05000000000000002	1	j	1	0.5652564247138798
20	62	n/a	n/a	n/a	f	8	0.04000000000000001	1	f	1	0.5569059331901371
20	63	n/a	n/a	n/a	j	8	0.03000000000000001	0	j	1	0.533156496938318
20	64	n/a	n/a	n/a	j	8	0.04000000000000001	0	j	1	0.5931297894567251
20	65	n/a	n/a	n/a	j	8	0.05000000000000002	1	j	1	0.5881346045061946
20	66	n/a	n/a	n/a	j	8	0.04000000000000001	1	j	1	0.605153470300138
20	67	n/a	n/a	n/a	j	8	0.03000000000000001	1	j	1	0.5939557151868939
