blockLoop_thisRepN	trialLoop_thisRepN	firstKey	readyKey_corr	readyKey_rt	targetKey	blockType	margin	outcome	trialResp_keys	trialResp_corr	trialResp_rt
0	0	f	1	1.656043168728502	f	9	0.1	0	f	1	0.9828255651609652
0	1	n/a	n/a	n/a	j	9	0.11	1	j	1	1.073174097280571
0	2	n/a	n/a	n/a	f	9	0.1	1	f	1	1.092126701942107
0	3	n/a	n/a	n/a	f	9	0.09000000000000001	2	f	1	1.080168459993729
0	4	n/a	n/a	n/a	f	9	0.1	1	f	1	1.10095853531493
0	5	n/a	n/a	n/a	j	9	0.09000000000000001	2	j	1	1.104116875108957
0	6	n/a	n/a	n/a	f	9	0.1	2	f	1	1.019902558460672
0	7	n/a	n/a	n/a	f	9	0.11	1	f	1	0.9599516926264187
0	8	n/a	n/a	n/a	f	9	0.1	1	f	1	1.115920022557475
0	9	n/a	n/a	n/a	j	9	0.09000000000000001	2	j	1	1.04887443874577
0	10	n/a	n/a	n/a	f	9	0.1	1	f	1	1.083785240878569
0	11	n/a	n/a	n/a	f	9	0.09000000000000001	2	f	1	1.040360206970945
0	12	n/a	n/a	n/a	f	9	0.1	1	f	1	1.075563521888398
0	13	n/a	n/a	n/a	j	9	0.09000000000000001	2	j	1	1.072309103334192
0	14	n/a	n/a	n/a	f	9	0.1	1	f	1	1.022441090462962
0	15	n/a	n/a	n/a	f	9	0.09000000000000001	1	f	1	1.050440494032955
0	16	n/a	n/a	n/a	f	9	0.08000000000000002	1	f	1	1.063268006428189
0	17	n/a	n/a	n/a	j	9	0.07000000000000002	2	j	1	1.035284853567646
0	18	n/a	n/a	n/a	f	9	0.08000000000000002	1	f	1	0.9893814437982655
0	19	n/a	n/a	n/a	f	9	0.07000000000000002	1	f	1	0.9457043813345081
0	20	n/a	n/a	n/a	f	9	0.06000000000000002	1	f	1	0.9819657030184317
0	21	n/a	n/a	n/a	j	9	0.05000000000000002	1	j	1	1.025899070544256
0	22	n/a	n/a	n/a	f	9	0.04000000000000001	1	f	1	1.077494790506535
0	23	n/a	n/a	n/a	f	9	0.03000000000000001	2	f	1	0.9609840403772978
0	24	n/a	n/a	n/a	f	9	0.04000000000000001	1	f	1	0.9329638244944363
0	25	n/a	n/a	n/a	j	9	0.03000000000000001	0	j	1	0.9623662060494098
0	26	n/a	n/a	n/a	f	9	0.04000000000000001	1	f	1	0.9414207511308632
0	27	n/a	n/a	n/a	f	9	0.03000000000000001	0	f	1	0.9947618543938006
0	28	n/a	n/a	n/a	f	9	0.04000000000000001	1	f	1	1.095647404063129
0	29	n/a	n/a	n/a	j	9	0.03000000000000001	2	j	1	0.9655436475550232
0	30	n/a	n/a	n/a	f	9	0.04000000000000001	1	f	1	1.033506398645841
0	31	n/a	n/a	n/a	f	9	0.03000000000000001	2	f	1	0.9894541443445632
0	32	n/a	n/a	n/a	f	9	0.04000000000000001	1	f	1	1.035360975316507
0	33	n/a	n/a	n/a	j	9	0.03000000000000001	2	j	1	1.063307920452644
0	34	n/a	n/a	n/a	f	9	0.04000000000000001	2	f	1	1.036921898801666
0	35	n/a	n/a	n/a	f	9	0.05000000000000002	1	f	1	1.117963620645241
0	36	n/a	n/a	n/a	f	9	0.04000000000000001	2	f	1	0.9740219567047461
0	37	n/a	n/a	n/a	j	9	0.05000000000000002	1	j	1	0.9061210723539261
0	38	n/a	n/a	n/a	f	9	0.04000000000000001	0	f	1	1.017185268647154
0	39	n/a	n/a	n/a	f	9	0.05000000000000002	1	f	1	0.971943291293428
0	40	n/a	n/a	n/a	f	9	0.04000000000000001	1	f	1	0.9508609882868768
0	41	n/a	n/a	n/a	j	9	0.03000000000000001	0	j	1	1.011894379505975
0	42	n/a	n/a	n/a	f	9	0.04000000000000001	1	f	1	1.000637769102468
0	43	n/a	n/a	n/a	f	9	0.03000000000000001	1	f	1	0.9983273172438203
0	44	n/a	n/a	n/a	f	9	0.02000000000000001	1	f	1	0.9165417690292088
0	45	n/a	n/a	n/a	j	9	0.01000000000000001	0	j	1	1.056831299665646
0	46	n/a	n/a	n/a	f	9	0.02000000000000001	2	f	1	1.006513683809317
0	47	n/a	n/a	n/a	f	9	0.03000000000000001	1	f	1	0.9220393557989155
0	48	n/a	n/a	n/a	f	9	0.02000000000000001	0	f	1	1.041080940225584
0	49	n/a	n/a	n/a	j	9	0.03000000000000001	2	j	1	0.9814123235682928
0	50	n/a	n/a	n/a	f	9	0.04000000000000001	1	f	1	1.024350976567803
0	51	n/a	n/a	n/a	f	9	0.03000000000000001	2	f	1	1.022312795381367
0	52	n/a	n/a	n/a	f	9	0.04000000000000001	1	f	1	0.988984014147718
0	53	n/a	n/a	n/a	j	9	0.03000000000000001	1	j	1	0.993930502268995
0	54	n/a	n/a	n/a	f	9	0.02000000000000001	1	f	1	0.9129306901504606
0	55	n/a	n/a	n/a	f	9	0.01000000000000001	0	f	1	1.042002954207419
0	56	n/a	n/a	n/a	f	9	0.02000000000000001	2	f	1	0.9579981861934357
0	57	n/a	n/a	n/a	j	9	0.03000000000000001	0	j	1	0.9109523800016177
0	58	n/a	n/a	n/a	f	9	0.04000000000000001	0	f	1	0.9538990158052911
0	59	n/a	n/a	n/a	f	9	0.05000000000000002	1	f	1	0.9698594940782641
0	60	n/a	n/a	n/a	f	9	0.04000000000000001	1	f	1	0.9680060578084522
0	61	n/a	n/a	n/a	j	9	0.03000000000000001	1	j	1	1.054058415315012
0	62	n/a	n/a	n/a	f	9	0.02000000000000001	2	f	1	4.250148323368194
0	63	n/a	n/a	n/a	f	9	0.03000000000000001	2	f	1	0.9354664338734437
0	64	n/a	n/a	n/a	f	9	0.04000000000000001	0	f	1	0.9403516254551505
0	65	n/a	n/a	n/a	j	9	0.05000000000000002	1	j	1	0.978319841917255
0	66	n/a	n/a	n/a	f	9	0.04000000000000001	1	f	1	0.9761339788383339
0	67	n/a	n/a	n/a	f	9	0.03000000000000001	1	f	1	1.045173838409028
0	68	n/a	n/a	n/a	f	9	0.02000000000000001	2	f	1	1.026859858149692
0	69	n/a	n/a	n/a	j	9	0.03000000000000001	2	j	1	1.023058902552293
0	70	n/a	n/a	n/a	f	9	0.04000000000000001	1	f	1	1.075046350160846
0	71	n/a	n/a	n/a	f	9	0.03000000000000001	2	f	1	1.006631715285039
1	0	f	1	1.624623703399266	f	3	0.1	2	f	1	0.3995391070493497
1	1	n/a	n/a	n/a	f	3	0.11	1	f	1	0.378904126226189
1	2	n/a	n/a	n/a	j	3	0.1	1	j	1	0.4171865230855474
1	3	n/a	n/a	n/a	f	3	0.09000000000000001	1	f	1	0.3808083103285753
1	4	n/a	n/a	n/a	f	3	0.08000000000000002	1	f	1	0.3329160417033563
1	5	n/a	n/a	n/a	f	3	0.07000000000000002	1	f	1	0.4418311528388585
1	6	n/a	n/a	n/a	f	3	0.06000000000000002	1	f	1	0.3919999178906437
1	7	n/a	n/a	n/a	f	3	0.05000000000000002	1	f	1	0.386895199169885
1	8	n/a	n/a	n/a	j	3	0.04000000000000001	1	j	1	0.4017794242627133
1	9	n/a	n/a	n/a	f	3	0.03000000000000001	1	f	1	0.439467672347746
1	10	n/a	n/a	n/a	f	3	0.02000000000000001	2	f	1	0.3519667208256578
1	11	n/a	n/a	n/a	f	3	0.03000000000000001	0	f	1	0.421757249172515
1	12	n/a	n/a	n/a	f	3	0.04000000000000001	1	f	1	0.4180193007123307
1	13	n/a	n/a	n/a	f	3	0.03000000000000001	1	f	1	0.4145171301006485
1	14	n/a	n/a	n/a	j	3	0.02000000000000001	2	j	1	0.413751921219955
1	15	n/a	n/a	n/a	f	3	0.03000000000000001	1	f	1	0.4438402538089576
1	16	n/a	n/a	n/a	f	3	0.02000000000000001	2	f	1	0.3527886646461411
1	17	n/a	n/a	n/a	f	3	0.03000000000000001	0	f	1	0.4248098167972785
1	18	n/a	n/a	n/a	f	3	0.04000000000000001	2	f	1	0.3597012036061642
1	19	n/a	n/a	n/a	f	3	0.05000000000000002	1	f	1	0.3565485658182297
1	20	n/a	n/a	n/a	j	3	0.04000000000000001	1	j	1	0.3946544856662513
1	21	n/a	n/a	n/a	f	3	0.03000000000000001	1	f	1	0.365561437805809
1	22	n/a	n/a	n/a	f	3	0.02000000000000001	1	f	1	0.3625467885049147
1	23	n/a	n/a	n/a	f	3	0.01000000000000001	0	f	1	0.3988645600238669
1	24	n/a	n/a	n/a	f	3	0.02000000000000001	1	f	1	0.3431631123712577
1	25	n/a	n/a	n/a	f	3	0.01000000000000001	0	f	1	0.355520494569646
1	26	n/a	n/a	n/a	j	3	0.02000000000000001	0	j	1	0.3883800009080005
1	27	n/a	n/a	n/a	f	3	0.03000000000000001	1	f	1	0.3773930952738738
1	28	n/a	n/a	n/a	f	3	0.02000000000000001	1	f	1	0.4085833400567935
1	29	n/a	n/a	n/a	f	3	0.01000000000000001	2	f	1	0.3893499117184547
1	30	n/a	n/a	n/a	f	3	0.02000000000000001	1	f	1	0.404393222712315
1	31	n/a	n/a	n/a	f	3	0.01000000000000001	2	f	1	0.3863030460943264
1	32	n/a	n/a	n/a	j	3	0.02000000000000001	1	j	1	0.3942114399869752
1	33	n/a	n/a	n/a	f	3	0.01000000000000001	2	f	1	0.4171463239617879
1	34	n/a	n/a	n/a	f	3	0.02000000000000001	2	f	1	0.3182003108158824
1	35	n/a	n/a	n/a	f	3	0.03000000000000001	0	f	1	0.4089539702908951
1	36	n/a	n/a	n/a	f	3	0.04000000000000001	1	f	1	0.421248345348431
1	37	n/a	n/a	n/a	f	3	0.03000000000000001	2	f	1	0.390164728032687
1	38	n/a	n/a	n/a	j	3	0.04000000000000001	1	j	1	0.4142628207409871
1	39	n/a	n/a	n/a	f	3	0.03000000000000001	1	f	1	0.4173230860724289
1	40	n/a	n/a	n/a	f	3	0.02000000000000001	2	f	1	0.4461715179786552
1	41	n/a	n/a	n/a	f	3	0.03000000000000001	2	f	1	0.3560219857845368
1	42	n/a	n/a	n/a	f	3	0.04000000000000001	1	f	1	0.3670984128748387
1	43	n/a	n/a	n/a	f	3	0.03000000000000001	1	f	1	0.3621744476695312
1	44	n/a	n/a	n/a	j	3	0.02000000000000001	0	j	1	0.3617487930987409
1	45	n/a	n/a	n/a	f	3	0.03000000000000001	1	f	1	0.3521899542665778
1	46	n/a	n/a	n/a	f	3	0.02000000000000001	0	f	1	0.4149596055813163
1	47	n/a	n/a	n/a	f	3	0.03000000000000001	1	f	1	0.3869539298066229
1	48	n/a	n/a	n/a	f	3	0.02000000000000001	1	f	1	0.3789123941314756
1	49	n/a	n/a	n/a	f	3	0.01000000000000001	1	f	1	0.3549209288903512
1	50	n/a	n/a	n/a	j	3	1.040834085586084e-17	0	j	1	0.4170636449089216
1	51	n/a	n/a	n/a	f	3	0.01000000000000001	2	f	1	0.3904962995420647
1	52	n/a	n/a	n/a	f	3	0.02000000000000001	1	f	1	0.3698430723070487
1	53	n/a	n/a	n/a	f	3	0.01000000000000001	0	f	1	0.4054731821943278
1	54	n/a	n/a	n/a	f	3	0.02000000000000001	2	f	1	0.4156583861222316
1	55	n/a	n/a	n/a	f	3	0.03000000000000001	1	f	1	0.3642565342815942
1	56	n/a	n/a	n/a	j	3	0.02000000000000001	1	j	1	0.4088946694537299
1	57	n/a	n/a	n/a	f	3	0.01000000000000001	2	f	1	0.4043687040975783
1	58	n/a	n/a	n/a	f	3	0.02000000000000001	2	f	1	0.3456494710389961
1	59	n/a	n/a	n/a	f	3	0.03000000000000001	0	f	1	0.3966595952315402
1	60	n/a	n/a	n/a	f	3	0.04000000000000001	1	f	1	0.4100404870769125
1	61	n/a	n/a	n/a	f	3	0.03000000000000001	1	f	1	0.4383050338146859
1	62	n/a	n/a	n/a	j	3	0.02000000000000001	2	j	1	0.3965774863791012
1	63	n/a	n/a	n/a	f	3	0.03000000000000001	1	f	1	0.4237520951301121
1	64	n/a	n/a	n/a	f	3	0.02000000000000001	2	f	1	0.4195457270761835
1	65	n/a	n/a	n/a	f	3	0.03000000000000001	2	f	1	0.3526529569589911
1	66	n/a	n/a	n/a	f	3	0.04000000000000001	1	f	1	0.3685718106062268
1	67	n/a	n/a	n/a	f	3	0.03000000000000001	1	f	1	0.414421621540896
1	68	n/a	n/a	n/a	j	3	0.02000000000000001	2	j	1	0.3965025050329132
1	69	n/a	n/a	n/a	f	3	0.03000000000000001	1	f	1	0.3874745227349194
1	70	n/a	n/a	n/a	f	3	0.02000000000000001	1	f	1	0.3943904829011444
1	71	n/a	n/a	n/a	f	3	0.01000000000000001	1	f	1	0.4313628444342612
2	0	j	1	3.311263823437912	j	4	0.1	1	j	1	0.3644866101276421
2	1	n/a	n/a	n/a	j	4	0.09000000000000001	1	j	1	0.3774395666023338
2	2	n/a	n/a	n/a	f	4	0.08000000000000002	1	f	1	0.3803567116428894
2	3	n/a	n/a	n/a	j	4	0.07000000000000002	1	j	1	0.4016194830619497
2	4	n/a	n/a	n/a	j	4	0.06000000000000002	1	j	1	0.3654588017416245
2	5	n/a	n/a	n/a	j	4	0.05000000000000002	1	j	1	0.4058543611354253
2	6	n/a	n/a	n/a	j	4	0.04000000000000001	1	j	1	0.3778803314817196
2	7	n/a	n/a	n/a	j	4	0.03000000000000001	1	j	1	0.3742837927093206
2	8	n/a	n/a	n/a	f	4	0.02000000000000001	1	f	1	0.4272531253409397
2	9	n/a	n/a	n/a	j	4	0.01000000000000001	2	j	1	0.4018660947167518
2	10	n/a	n/a	n/a	j	4	0.02000000000000001	1	j	1	0.3749215618136077
2	11	n/a	n/a	n/a	j	4	0.01000000000000001	0	j	1	0.3812368158996833
2	12	n/a	n/a	n/a	j	4	0.02000000000000001	1	j	1	0.3953102160794515
2	13	n/a	n/a	n/a	j	4	0.01000000000000001	2	j	1	0.3212685589514876
2	14	n/a	n/a	n/a	f	4	0.02000000000000001	0	f	1	0.3820812826306792
2	15	n/a	n/a	n/a	j	4	0.03000000000000001	1	j	1	0.4111036256472289
2	16	n/a	n/a	n/a	j	4	0.02000000000000001	2	j	1	0.4093833311617345
2	17	n/a	n/a	n/a	j	4	0.03000000000000001	1	j	1	0.3557203497948649
2	18	n/a	n/a	n/a	j	4	0.02000000000000001	0	j	1	0.3518894586777606
2	19	n/a	n/a	n/a	j	4	0.03000000000000001	0	j	1	0.3656885924865492
2	20	n/a	n/a	n/a	f	4	0.04000000000000001	1	f	1	0.3649513234213373
2	21	n/a	n/a	n/a	j	4	0.03000000000000001	1	j	1	0.3219664841926715
2	22	n/a	n/a	n/a	j	4	0.02000000000000001	0	j	1	0.4050067582993506
2	23	n/a	n/a	n/a	j	4	0.03000000000000001	1	j	1	0.4107398378164362
2	24	n/a	n/a	n/a	j	4	0.02000000000000001	2	j	1	0.3708788412623107
2	25	n/a	n/a	n/a	j	4	0.03000000000000001	1	j	1	0.3770210395377944
2	26	n/a	n/a	n/a	f	4	0.02000000000000001	1	f	1	0.4454376701160072
2	27	n/a	n/a	n/a	j	4	0.01000000000000001	2	j	1	0.4170114715761883
2	28	n/a	n/a	n/a	j	4	0.02000000000000001	2	j	1	0.3738250665210217
2	29	n/a	n/a	n/a	j	4	0.03000000000000001	1	j	1	0.3708748498593195
2	30	n/a	n/a	n/a	j	4	0.02000000000000001	1	j	1	0.411819797298449
2	31	n/a	n/a	n/a	j	4	0.01000000000000001	2	j	1	0.3358072426271974
2	32	n/a	n/a	n/a	f	4	0.02000000000000001	0	f	1	0.4033032847255527
2	33	n/a	n/a	n/a	j	4	0.03000000000000001	1	j	1	0.3956637403043715
2	34	n/a	n/a	n/a	j	4	0.02000000000000001	1	j	1	0.3696722973018041
2	35	n/a	n/a	n/a	j	4	0.01000000000000001	0	j	1	0.3776622298428265
2	36	n/a	n/a	n/a	j	4	0.02000000000000001	1	j	1	0.4142839181549789
2	37	n/a	n/a	n/a	j	4	0.01000000000000001	2	j	1	0.369606154059511
2	38	n/a	n/a	n/a	f	4	0.02000000000000001	1	f	1	0.360672254821111
2	39	n/a	n/a	n/a	j	4	0.01000000000000001	0	j	1	0.3575943132782413
2	40	n/a	n/a	n/a	j	4	0.02000000000000001	0	j	1	0.40126995024184
2	41	n/a	n/a	n/a	j	4	0.03000000000000001	1	j	1	0.4094605933114508
2	42	n/a	n/a	n/a	j	4	0.02000000000000001	1	j	1	0.3985210143055156
2	43	n/a	n/a	n/a	j	4	0.01000000000000001	2	j	1	0.4185042561184673
2	44	n/a	n/a	n/a	f	4	0.02000000000000001	2	f	1	0.4304844507787493
2	45	n/a	n/a	n/a	j	4	0.03000000000000001	2	j	1	0.388375439304582
2	46	n/a	n/a	n/a	j	4	0.04000000000000001	1	j	1	0.370395311358152
2	47	n/a	n/a	n/a	j	4	0.03000000000000001	1	j	1	0.3771578876239801
2	48	n/a	n/a	n/a	j	4	0.02000000000000001	1	j	1	0.4020445674304938
2	49	n/a	n/a	n/a	j	4	0.01000000000000001	2	j	1	0.3993335498180386
2	50	n/a	n/a	n/a	f	4	0.02000000000000001	1	f	1	0.4038874549933098
2	51	n/a	n/a	n/a	j	4	0.01000000000000001	2	j	1	0.3772456984788732
2	52	n/a	n/a	n/a	j	4	0.02000000000000001	1	j	1	0.4003239878438762
2	53	n/a	n/a	n/a	j	4	0.01000000000000001	2	j	1	0.391254095819022
2	54	n/a	n/a	n/a	j	4	0.02000000000000001	1	j	1	0.3891848387156642
2	55	n/a	n/a	n/a	j	4	0.01000000000000001	1	j	1	0.3931286295028258
2	56	n/a	n/a	n/a	f	4	1.040834085586084e-17	2	f	1	0.4029714281168708
2	57	n/a	n/a	n/a	j	4	0.01000000000000001	2	j	1	0.3842286571871227
2	58	n/a	n/a	n/a	j	4	0.02000000000000001	1	j	1	0.3911246603402105
2	59	n/a	n/a	n/a	j	4	0.01000000000000001	1	j	1	0.3961552530145127
2	60	n/a	n/a	n/a	j	4	1.040834085586084e-17	2	j	1	0.4239587927604589
2	61	n/a	n/a	n/a	j	4	0.01000000000000001	2	j	1	0.3317211868488812
2	62	n/a	n/a	n/a	f	4	0.02000000000000001	0	f	1	0.3941107996233768
2	63	n/a	n/a	n/a	j	4	0.03000000000000001	1	j	1	0.3650359981729707
2	64	n/a	n/a	n/a	j	4	0.02000000000000001	0	j	1	0.4209703726737644
2	65	n/a	n/a	n/a	j	4	0.03000000000000001	2	j	1	0.4080998101526347
2	66	n/a	n/a	n/a	j	4	0.04000000000000001	1	j	1	0.4139360959343321
2	67	n/a	n/a	n/a	j	4	0.03000000000000001	1	j	1	0.3627549116336013
2	68	n/a	n/a	n/a	f	4	0.02000000000000001	0	f	1	0.407168102763535
2	69	n/a	n/a	n/a	j	4	0.03000000000000001	1	j	1	0.3969030707849015
2	70	n/a	n/a	n/a	j	4	0.02000000000000001	1	j	1	0.3624190636219282
2	71	n/a	n/a	n/a	j	4	0.01000000000000001	0	j	1	0.3907477579014085
3	0	f	1	1.380392064065745	f	7	0.1	0	f	1	0.6818649771266792
3	1	n/a	n/a	n/a	f	7	0.11	1	f	1	0.6377733789995546
3	2	n/a	n/a	n/a	j	7	0.1	1	j	1	0.6276685733228078
3	3	n/a	n/a	n/a	f	7	0.09000000000000001	1	f	1	0.6297084651105251
3	4	n/a	n/a	n/a	f	7	0.08000000000000002	1	f	1	0.5909975626782398
3	5	n/a	n/a	n/a	f	7	0.07000000000000002	1	f	1	0.6771180591294979
3	6	n/a	n/a	n/a	f	7	0.06000000000000002	2	f	1	0.6499813687023561
3	7	n/a	n/a	n/a	f	7	0.07000000000000002	1	f	1	0.6294364795376168
3	8	n/a	n/a	n/a	j	7	0.06000000000000002	1	j	1	0.6903256100649742
3	9	n/a	n/a	n/a	f	7	0.05000000000000002	2	f	1	0.6142372187441651
3	10	n/a	n/a	n/a	f	7	0.06000000000000002	1	f	1	0.6519998779767775
3	11	n/a	n/a	n/a	f	7	0.05000000000000002	2	f	1	0.6253256200434407
3	12	n/a	n/a	n/a	f	7	0.06000000000000002	1	f	1	0.6699189944865793
3	13	n/a	n/a	n/a	f	7	0.05000000000000002	2	f	1	0.6104821642747993
3	14	n/a	n/a	n/a	j	7	0.06000000000000002	1	j	1	0.6163406878713431
3	15	n/a	n/a	n/a	f	7	0.05000000000000002	1	f	1	0.6038128157670144
3	16	n/a	n/a	n/a	f	7	0.04000000000000001	1	f	1	0.599069318972397
3	17	n/a	n/a	n/a	f	7	0.03000000000000001	1	f	1	0.626045783097652
3	18	n/a	n/a	n/a	f	7	0.02000000000000001	2	f	1	0.664068453694199
3	19	n/a	n/a	n/a	f	7	0.03000000000000001	2	f	1	0.6359812392674939
3	20	n/a	n/a	n/a	j	7	0.04000000000000001	2	j	1	0.5619073658199341
3	21	n/a	n/a	n/a	f	7	0.05000000000000002	1	f	1	0.6389787825610256
3	22	n/a	n/a	n/a	f	7	0.04000000000000001	2	f	1	0.5818954543337895
3	23	n/a	n/a	n/a	f	7	0.05000000000000002	1	f	1	0.5618586136897648
3	24	n/a	n/a	n/a	f	7	0.04000000000000001	1	f	1	0.4906810729680728
3	25	n/a	n/a	n/a	f	7	0.03000000000000001	0	f	1	0.0538505772856297
3	26	n/a	n/a	n/a	j	7	0.04000000000000001	0	f	0	0.4309887929975957
3	27	n/a	n/a	n/a	f	7	0.05000000000000002	0	f	1	0.6848080662821303
3	28	n/a	n/a	n/a	f	7	0.06000000000000002	2	f	1	0.5077984877716517
3	29	n/a	n/a	n/a	f	7	0.07000000000000002	0	f	1	1.482338186404377
3	30	n/a	n/a	n/a	f	7	0.08000000000000002	2	f	1	0.4727343017439125
3	31	n/a	n/a	n/a	f	7	0.09000000000000001	0	f	1	0.5722576427524473
3	32	n/a	n/a	n/a	j	7	0.1	1	j	1	0.4875942933213082
3	33	n/a	n/a	n/a	f	7	0.09000000000000001	0	f	1	0.5235103586874175
3	34	n/a	n/a	n/a	f	7	0.1	1	f	1	0.5054809084085718
3	35	n/a	n/a	n/a	f	7	0.09000000000000001	1	f	1	0.5445855341877177
3	36	n/a	n/a	n/a	f	7	0.08000000000000002	1	f	1	0.5983722490327636
3	37	n/a	n/a	n/a	f	7	0.07000000000000002	1	f	1	0.4973769357948186
3	38	n/a	n/a	n/a	j	7	0.06000000000000002	0	j	1	0.4941182407383167
3	39	n/a	n/a	n/a	f	7	0.07000000000000002	0	f	1	0.5153767356532626
3	40	n/a	n/a	n/a	f	7	0.08000000000000002	1	f	1	0.4953558606193837
3	41	n/a	n/a	n/a	f	7	0.07000000000000002	0	f	1	0.4752557277333835
3	42	n/a	n/a	n/a	f	7	0.08000000000000002	0	f	1	0.4723679480121064
3	43	n/a	n/a	n/a	f	7	0.09000000000000001	0	f	1	0.4792194755355013
3	44	n/a	n/a	n/a	j	7	0.1	0	j	1	0.5158160750306706
3	45	n/a	n/a	n/a	f	7	0.11	1	f	1	0.5702026406543155
3	46	n/a	n/a	n/a	f	7	0.1	1	f	1	0.5218245613232284
3	47	n/a	n/a	n/a	f	7	0.09000000000000001	1	f	1	0.5061631531389139
3	48	n/a	n/a	n/a	f	7	0.08000000000000002	0	f	1	0.5420413001811539
3	49	n/a	n/a	n/a	f	7	0.09000000000000001	1	f	1	0.5617152082977555
3	50	n/a	n/a	n/a	j	7	0.08000000000000002	1	j	1	0.5268540135984949
3	51	n/a	n/a	n/a	f	7	0.07000000000000002	1	f	1	0.5159055964868458
3	52	n/a	n/a	n/a	f	7	0.06000000000000002	0	f	1	0.5126035662033246
3	53	n/a	n/a	n/a	f	7	0.07000000000000002	0	f	1	0.5979617047742067
3	54	n/a	n/a	n/a	f	7	0.08000000000000002	1	f	1	0.5547915504284902
3	55	n/a	n/a	n/a	f	7	0.07000000000000002	1	f	1	0.5378030009069334
3	56	n/a	n/a	n/a	j	7	0.06000000000000002	1	j	1	0.5588257179751963
3	57	n/a	n/a	n/a	f	7	0.05000000000000002	1	f	1	0.501766908366335
3	58	n/a	n/a	n/a	f	7	0.04000000000000001	0	f	1	0.4984380786645488
3	59	n/a	n/a	n/a	f	7	0.05000000000000002	0	f	1	0.5353614029663731
3	60	n/a	n/a	n/a	f	7	0.06000000000000002	1	f	1	1.250804909082945
3	61	n/a	n/a	n/a	f	7	0.05000000000000002	2	f	1	0.6007308828211535
3	62	n/a	n/a	n/a	j	7	0.06000000000000002	1	j	1	0.484558261505299
3	63	n/a	n/a	n/a	f	7	0.05000000000000002	0	f	1	0.5116208258823463
3	64	n/a	n/a	n/a	f	7	0.06000000000000002	0	f	1	0.5885157656121009
3	65	n/a	n/a	n/a	f	7	0.07000000000000002	1	f	1	0.5914990538949496
3	66	n/a	n/a	n/a	f	7	0.06000000000000002	1	f	1	0.5954588102940761
3	67	n/a	n/a	n/a	f	7	0.05000000000000002	1	f	1	0.5445479009649716
3	68	n/a	n/a	n/a	j	7	0.04000000000000001	0	j	1	0.5594563595732325
3	69	n/a	n/a	n/a	f	7	0.05000000000000002	1	f	1	0.623402904429895
3	70	n/a	n/a	n/a	f	7	0.04000000000000001	1	f	1	0.5970402609927987
3	71	n/a	n/a	n/a	f	7	0.03000000000000001	1	f	1	0.4990727116655762
4	0	j	1	1.207700327779094	j	2	0.1	2	j	1	0.424064279828599
4	1	n/a	n/a	n/a	f	2	0.11	1	f	1	0.3873627634638979
4	2	n/a	n/a	n/a	j	2	0.1	1	j	1	0.3834386445887503
4	3	n/a	n/a	n/a	j	2	0.09000000000000001	1	j	1	0.3914080499180272
4	4	n/a	n/a	n/a	j	2	0.08000000000000002	1	j	1	0.4200523500949203
4	5	n/a	n/a	n/a	f	2	0.07000000000000002	1	f	1	0.4342825553758303
4	6	n/a	n/a	n/a	j	2	0.06000000000000002	1	j	1	0.4393305391604372
4	7	n/a	n/a	n/a	j	2	0.05000000000000002	2	j	1	0.3952757189581462
4	8	n/a	n/a	n/a	j	2	0.06000000000000002	1	j	1	0.368025843761643
4	9	n/a	n/a	n/a	f	2	0.05000000000000002	1	f	1	0.3771997973508405
4	10	n/a	n/a	n/a	j	2	0.04000000000000001	1	j	1	0.3661741180912941
4	11	n/a	n/a	n/a	j	2	0.03000000000000001	1	j	1	0.3951890485022886
4	12	n/a	n/a	n/a	j	2	0.02000000000000001	1	j	1	0.422144700314675
4	13	n/a	n/a	n/a	f	2	0.01000000000000001	2	f	1	0.4117827342743112
4	14	n/a	n/a	n/a	j	2	0.02000000000000001	2	j	1	0.3922696226618427
4	15	n/a	n/a	n/a	j	2	0.03000000000000001	1	j	1	0.3570275341189699
4	16	n/a	n/a	n/a	j	2	0.02000000000000001	0	j	1	0.3817163544008508
4	17	n/a	n/a	n/a	f	2	0.03000000000000001	1	f	1	0.4050406852220476
4	18	n/a	n/a	n/a	j	2	0.02000000000000001	2	j	1	0.3772163331614138
4	19	n/a	n/a	n/a	j	2	0.03000000000000001	1	j	1	0.3990005528085021
4	20	n/a	n/a	n/a	j	2	0.02000000000000001	1	j	1	0.3779134031010472
4	21	n/a	n/a	n/a	f	2	0.01000000000000001	0	f	1	0.3826514829906955
4	22	n/a	n/a	n/a	j	2	0.02000000000000001	1	j	1	0.3629139975346334
4	23	n/a	n/a	n/a	j	2	0.01000000000000001	0	j	1	0.4014030920243385
4	24	n/a	n/a	n/a	j	2	0.02000000000000001	1	j	1	0.4000813675902464
4	25	n/a	n/a	n/a	f	2	0.01000000000000001	2	f	1	0.3588524603710539
4	26	n/a	n/a	n/a	j	2	0.02000000000000001	0	j	1	0.4053659845267248
4	27	n/a	n/a	n/a	j	2	0.03000000000000001	1	j	1	0.3858118184853083
4	28	n/a	n/a	n/a	j	2	0.02000000000000001	1	j	1	0.4319207854859997
4	29	n/a	n/a	n/a	f	2	0.01000000000000001	2	f	1	0.4239191638353077
4	30	n/a	n/a	n/a	j	2	0.02000000000000001	2	j	1	0.4046942885033786
4	31	n/a	n/a	n/a	j	2	0.03000000000000001	1	j	1	0.3918659208065947
4	32	n/a	n/a	n/a	j	2	0.02000000000000001	1	j	1	0.4057320531592268
4	33	n/a	n/a	n/a	f	2	0.01000000000000001	2	f	1	0.3332721318274707
4	34	n/a	n/a	n/a	j	2	0.02000000000000001	0	j	1	0.385689795608414
4	35	n/a	n/a	n/a	j	2	0.03000000000000001	1	j	1	0.366229427527287
4	36	n/a	n/a	n/a	j	2	0.02000000000000001	0	j	1	0.4007596209194162
4	37	n/a	n/a	n/a	f	2	0.03000000000000001	1	f	1	0.3826865503124282
4	38	n/a	n/a	n/a	j	2	0.02000000000000001	1	j	1	0.4372587161542469
4	39	n/a	n/a	n/a	j	2	0.01000000000000001	2	j	1	0.3714960831512144
4	40	n/a	n/a	n/a	j	2	0.02000000000000001	1	j	1	0.4014857710790238
4	41	n/a	n/a	n/a	f	2	0.01000000000000001	2	f	1	0.3446125616846984
4	42	n/a	n/a	n/a	j	2	0.02000000000000001	0	j	1	0.3581511139291251
4	43	n/a	n/a	n/a	j	2	0.03000000000000001	1	j	1	0.3654696355461056
4	44	n/a	n/a	n/a	j	2	0.02000000000000001	0	j	1	0.4281674416160968
4	45	n/a	n/a	n/a	f	2	0.03000000000000001	2	f	1	0.3303863478067797
4	46	n/a	n/a	n/a	j	2	0.04000000000000001	0	j	1	0.3353433846350526
4	47	n/a	n/a	n/a	j	2	0.05000000000000002	0	j	1	0.3733925695487414
4	48	n/a	n/a	n/a	j	2	0.06000000000000002	1	j	1	0.4674174684860191
4	49	n/a	n/a	n/a	f	2	0.05000000000000002	2	f	1	0.2732642459559429
4	50	n/a	n/a	n/a	j	2	0.06000000000000002	0	j	1	0.4292436947962415
4	51	n/a	n/a	n/a	j	2	0.07000000000000002	1	j	1	0.3793101088831463
4	52	n/a	n/a	n/a	j	2	0.06000000000000002	1	j	1	0.3983288567851559
4	53	n/a	n/a	n/a	f	2	0.05000000000000002	1	f	1	0.3903072781231458
4	54	n/a	n/a	n/a	j	2	0.04000000000000001	1	j	1	0.3687112245934259
4	55	n/a	n/a	n/a	j	2	0.03000000000000001	1	j	1	0.377188108244809
4	56	n/a	n/a	n/a	j	2	0.02000000000000001	1	j	1	0.3971938729700923
4	57	n/a	n/a	n/a	f	2	0.01000000000000001	2	f	1	0.4280325892323162
4	58	n/a	n/a	n/a	j	2	0.02000000000000001	2	j	1	0.3780263027711044
4	59	n/a	n/a	n/a	j	2	0.03000000000000001	1	j	1	0.4069423034216015
4	60	n/a	n/a	n/a	j	2	0.02000000000000001	2	j	1	0.3630710877350793
4	61	n/a	n/a	n/a	f	2	0.03000000000000001	1	f	1	0.3780710635001014
4	62	n/a	n/a	n/a	j	2	0.02000000000000001	1	j	1	0.3910693509042176
4	63	n/a	n/a	n/a	j	2	0.01000000000000001	1	j	1	0.3890750751452288
4	64	n/a	n/a	n/a	j	2	1.040834085586084e-17	2	j	1	0.4095124815430609
4	65	n/a	n/a	n/a	f	2	0.01000000000000001	2	f	1	0.3569234725546266
4	66	n/a	n/a	n/a	j	2	0.02000000000000001	0	j	1	0.3785662825121108
4	67	n/a	n/a	n/a	j	2	0.03000000000000001	1	j	1	0.3207776164435927
4	68	n/a	n/a	n/a	j	2	0.02000000000000001	0	j	1	0.3906037823089719
4	69	n/a	n/a	n/a	f	2	0.03000000000000001	1	f	1	0.3885430782083859
4	70	n/a	n/a	n/a	j	2	0.02000000000000001	1	j	1	0.3788385531843232
4	71	n/a	n/a	n/a	j	2	0.01000000000000001	1	j	1	0.4009865606622043
5	0	j	1	1.093969019304495	j	10	0.1	0	j	1	0.909340423584581
5	1	n/a	n/a	n/a	f	10	0.11	1	f	1	0.915711842404562
5	2	n/a	n/a	n/a	j	10	0.1	1	j	1	0.9372377612908167
5	3	n/a	n/a	n/a	j	10	0.09000000000000001	1	j	1	0.9333159232155595
5	4	n/a	n/a	n/a	j	10	0.08000000000000002	1	j	1	0.9150008025571879
5	5	n/a	n/a	n/a	f	10	0.07000000000000002	1	f	1	0.8412707599254645
5	6	n/a	n/a	n/a	j	10	0.06000000000000002	0	j	1	0.8556332516909606
5	7	n/a	n/a	n/a	j	10	0.07000000000000002	0	j	1	0.976968181965276
5	8	n/a	n/a	n/a	j	10	0.08000000000000002	1	j	1	0.9409631653416
5	9	n/a	n/a	n/a	f	10	0.07000000000000002	1	f	1	0.9069686751881818
5	10	n/a	n/a	n/a	j	10	0.06000000000000002	0	j	1	0.9263725934342801
5	11	n/a	n/a	n/a	j	10	0.07000000000000002	1	j	1	1.059582801502984
5	12	n/a	n/a	n/a	j	10	0.06000000000000002	2	j	1	0.9222825462511537
5	13	n/a	n/a	n/a	f	10	0.07000000000000002	1	f	1	0.8195050717895356
5	14	n/a	n/a	n/a	j	10	0.06000000000000002	0	j	1	0.8024857314485416
5	15	n/a	n/a	n/a	j	10	0.07000000000000002	0	j	1	0.82455761717938
5	16	n/a	n/a	n/a	j	10	0.08000000000000002	0	j	1	0.8365164293263661
5	17	n/a	n/a	n/a	f	10	0.09000000000000001	0	f	1	0.9229089113487134
5	18	n/a	n/a	n/a	j	10	0.1	1	j	1	0.9052834480244201
5	19	n/a	n/a	n/a	j	10	0.09000000000000001	1	j	1	0.8682361051432963
5	20	n/a	n/a	n/a	j	10	0.08000000000000002	0	j	1	0.9057914965451346
5	21	n/a	n/a	n/a	f	10	0.09000000000000001	1	f	1	0.8861720425629755
5	22	n/a	n/a	n/a	j	10	0.08000000000000002	0	j	1	0.8857763235137099
5	23	n/a	n/a	n/a	j	10	0.09000000000000001	0	j	1	0.8740150857902336
5	24	n/a	n/a	n/a	j	10	0.1	0	j	1	1.001155225929324
5	25	n/a	n/a	n/a	f	10	0.11	1	f	1	0.9409788458524417
5	26	n/a	n/a	n/a	j	10	0.1	1	j	1	0.9948550821518438
5	27	n/a	n/a	n/a	j	10	0.09000000000000001	1	j	1	0.9859057875037252
5	28	n/a	n/a	n/a	j	10	0.08000000000000002	1	j	1	0.8723857382610731
5	29	n/a	n/a	n/a	f	10	0.07000000000000002	0	f	1	0.8467612191907392
5	30	n/a	n/a	n/a	j	10	0.08000000000000002	0	j	1	2.004602372204317
5	31	n/a	n/a	n/a	j	10	0.09000000000000001	2	j	1	0.8006870344124764
5	32	n/a	n/a	n/a	j	10	0.1	0	j	1	0.7494947312061413
5	33	n/a	n/a	n/a	f	10	0.11	0	f	1	0.894520916232068
5	34	n/a	n/a	n/a	j	10	0.12	1	j	1	1.006415609348551
5	35	n/a	n/a	n/a	j	10	0.11	1	j	1	0.8962945244511502
5	36	n/a	n/a	n/a	j	10	0.1	1	j	1	0.8898897489107185
5	37	n/a	n/a	n/a	f	10	0.09000000000000001	0	f	1	0.9380805174223497
5	38	n/a	n/a	n/a	j	10	0.1	1	j	1	0.9259643299756135
5	39	n/a	n/a	n/a	j	10	0.09000000000000001	1	j	1	0.988168057432631
5	40	n/a	n/a	n/a	j	10	0.08000000000000002	1	j	1	0.9301390519103734
5	41	n/a	n/a	n/a	f	10	0.07000000000000002	1	f	1	0.8646734932954132
5	42	n/a	n/a	n/a	j	10	0.06000000000000002	0	j	1	0.8622147893438523
5	43	n/a	n/a	n/a	j	10	0.07000000000000002	0	j	1	1.002444734042001
5	44	n/a	n/a	n/a	j	10	0.08000000000000002	1	j	1	1.008004757752133
5	45	n/a	n/a	n/a	f	10	0.07000000000000002	1	f	1	0.8918355576370232
5	46	n/a	n/a	n/a	j	10	0.06000000000000002	0	j	1	0.8967963007671642
5	47	n/a	n/a	n/a	j	10	0.07000000000000002	0	j	1	0.9166515325996443
5	48	n/a	n/a	n/a	j	10	0.08000000000000002	1	j	1	0.9448519317957107
5	49	n/a	n/a	n/a	f	10	0.07000000000000002	1	f	1	0.9235398380460538
5	50	n/a	n/a	n/a	j	10	0.06000000000000002	0	j	1	0.8466682765320002
5	51	n/a	n/a	n/a	j	10	0.07000000000000002	0	j	1	0.9705098075883143
5	52	n/a	n/a	n/a	j	10	0.08000000000000002	1	j	1	0.9655074398306169
5	53	n/a	n/a	n/a	f	10	0.07000000000000002	1	f	1	0.9473588176788326
5	54	n/a	n/a	n/a	j	10	0.06000000000000002	1	j	1	0.8413890765004908
5	55	n/a	n/a	n/a	j	10	0.05000000000000002	0	j	1	0.8521940882183117
5	56	n/a	n/a	n/a	j	10	0.06000000000000002	0	j	1	0.8473123178391688
5	57	n/a	n/a	n/a	f	10	0.07000000000000002	0	f	1	0.8622287592534121
5	58	n/a	n/a	n/a	j	10	0.08000000000000002	0	j	1	0.8508170543500455
5	59	n/a	n/a	n/a	j	10	0.09000000000000001	0	j	1	0.9291483287870506
5	60	n/a	n/a	n/a	j	10	0.1	1	j	1	0.9817333463706746
5	61	n/a	n/a	n/a	f	10	0.09000000000000001	1	f	1	0.8189579645440972
5	62	n/a	n/a	n/a	j	10	0.08000000000000002	0	j	1	0.8059759278512502
5	63	n/a	n/a	n/a	j	10	0.09000000000000001	0	j	1	0.8515087073865288
5	64	n/a	n/a	n/a	j	10	0.1	0	j	1	0.9931307962651772
5	65	n/a	n/a	n/a	f	10	0.11	1	f	1	0.9340731492920895
5	66	n/a	n/a	n/a	j	10	0.1	1	j	1	0.9907157126399397
5	67	n/a	n/a	n/a	j	10	0.09000000000000001	1	j	1	0.8826761441559938
5	68	n/a	n/a	n/a	j	10	0.08000000000000002	0	j	1	0.90160480040322
5	69	n/a	n/a	n/a	f	10	0.09000000000000001	1	f	1	0.9846291088997532
5	70	n/a	n/a	n/a	j	10	0.08000000000000002	1	j	1	0.8855921487956948
5	71	n/a	n/a	n/a	j	10	0.07000000000000002	0	j	1	0.9314887161635852
6	0	j	1	1.864005218474631	j	8	0.1	2	j	1	0.7600462888658512
6	1	n/a	n/a	n/a	j	8	0.11	2	j	1	0.6939766029699967
6	2	n/a	n/a	n/a	f	8	0.12	1	f	1	0.6592160486306966
6	3	n/a	n/a	n/a	j	8	0.11	1	j	1	0.5802592644031392
6	4	n/a	n/a	n/a	j	8	0.1	1	j	1	0.5691654462007136
6	5	n/a	n/a	n/a	j	8	0.09000000000000001	1	j	1	0.5980426732257911
6	6	n/a	n/a	n/a	j	8	0.08000000000000002	1	j	1	0.6270787010489585
6	7	n/a	n/a	n/a	j	8	0.07000000000000002	1	j	1	0.6016668667107297
6	8	n/a	n/a	n/a	f	8	0.06000000000000002	1	f	1	0.6091721289485577
6	9	n/a	n/a	n/a	j	8	0.05000000000000002	1	j	1	0.5739611163280642
6	10	n/a	n/a	n/a	j	8	0.04000000000000001	1	j	1	0.5047781364664843
6	11	n/a	n/a	n/a	j	8	0.03000000000000001	0	j	1	0.5339592802811239
6	12	n/a	n/a	n/a	j	8	0.04000000000000001	0	j	1	0.588044495014401
6	13	n/a	n/a	n/a	j	8	0.05000000000000002	1	j	1	0.5371948822230479
6	14	n/a	n/a	n/a	f	8	0.04000000000000001	0	f	1	0.5592396834363171
6	15	n/a	n/a	n/a	j	8	0.05000000000000002	1	j	1	0.5327464641159168
6	16	n/a	n/a	n/a	j	8	0.04000000000000001	0	j	1	0.560866179963341
6	17	n/a	n/a	n/a	j	8	0.05000000000000002	1	j	1	0.6137990197694307
6	18	n/a	n/a	n/a	j	8	0.04000000000000001	1	j	1	0.581623183663396
6	19	n/a	n/a	n/a	j	8	0.03000000000000001	1	j	1	0.5462222943206143
6	20	n/a	n/a	n/a	f	8	0.02000000000000001	0	f	1	0.5806182055275713
6	21	n/a	n/a	n/a	j	8	0.03000000000000001	1	j	1	0.5806592599547002
6	22	n/a	n/a	n/a	j	8	0.02000000000000001	1	j	1	0.5635281603426847
6	23	n/a	n/a	n/a	j	8	0.01000000000000001	0	j	1	0.536670012792456
6	24	n/a	n/a	n/a	j	8	0.02000000000000001	0	j	1	0.5643971456920553
6	25	n/a	n/a	n/a	j	8	0.03000000000000001	1	j	1	0.6174303407588013
6	26	n/a	n/a	n/a	f	8	0.02000000000000001	2	f	1	0.5987357517624332
6	27	n/a	n/a	n/a	j	8	0.03000000000000001	1	j	1	0.612054776867808
6	28	n/a	n/a	n/a	j	8	0.02000000000000001	2	j	1	0.6049994027162029
6	29	n/a	n/a	n/a	j	8	0.03000000000000001	1	j	1	0.5502801251823257
6	30	n/a	n/a	n/a	j	8	0.02000000000000001	0	j	1	0.5300636714237044
6	31	n/a	n/a	n/a	j	8	0.03000000000000001	0	j	1	0.5192392728913546
6	32	n/a	n/a	n/a	f	8	0.04000000000000001	0	f	1	0.512388315568387
6	33	n/a	n/a	n/a	j	8	0.05000000000000002	0	j	1	0.5501583874047355
6	34	n/a	n/a	n/a	j	8	0.06000000000000002	1	j	1	0.611288712683745
6	35	n/a	n/a	n/a	j	8	0.05000000000000002	1	j	1	0.5720207245012716
6	36	n/a	n/a	n/a	j	8	0.04000000000000001	1	j	1	0.5692883243791584
6	37	n/a	n/a	n/a	j	8	0.03000000000000001	1	j	1	0.5796571328210121
6	38	n/a	n/a	n/a	f	8	0.02000000000000001	1	f	1	0.5772109732770332
6	39	n/a	n/a	n/a	j	8	0.01000000000000001	1	j	1	0.5931207037174318
6	40	n/a	n/a	n/a	j	8	1.040834085586084e-17	2	j	1	0.5748902578143316
6	41	n/a	n/a	n/a	j	8	0.01000000000000001	0	j	1	0.5794022532609233
6	42	n/a	n/a	n/a	j	8	0.02000000000000001	1	j	1	0.6228221553628828
6	43	n/a	n/a	n/a	j	8	0.01000000000000001	2	j	1	0.5737475762925897
6	44	n/a	n/a	n/a	f	8	0.02000000000000001	1	f	1	0.5698787668497971
6	45	n/a	n/a	n/a	j	8	0.01000000000000001	0	j	1	0.6137796329567209
6	46	n/a	n/a	n/a	j	8	0.02000000000000001	2	j	1	0.6096205915309838
6	47	n/a	n/a	n/a	j	8	0.03000000000000001	1	j	1	0.6245555644563865
6	48	n/a	n/a	n/a	j	8	0.02000000000000001	2	j	1	0.5015476663265872
6	49	n/a	n/a	n/a	j	8	0.03000000000000001	0	j	1	0.512405991777996
6	50	n/a	n/a	n/a	f	8	0.04000000000000001	0	f	1	0.539550379909997
6	51	n/a	n/a	n/a	j	8	0.05000000000000002	1	j	1	0.6166662722789624
6	52	n/a	n/a	n/a	j	8	0.04000000000000001	1	j	1	0.5150323346369987
6	53	n/a	n/a	n/a	j	8	0.03000000000000001	0	j	1	0.5373055010932148
6	54	n/a	n/a	n/a	j	8	0.04000000000000001	0	j	1	0.6045161579113483
6	55	n/a	n/a	n/a	j	8	0.05000000000000002	1	j	1	0.635458080438184
6	56	n/a	n/a	n/a	f	8	0.04000000000000001	2	f	1	0.569128668277699
6	57	n/a	n/a	n/a	j	8	0.05000000000000002	1	j	1	0.550423530570697
6	58	n/a	n/a	n/a	j	8	0.04000000000000001	1	j	1	0.5696102024812717
6	59	n/a	n/a	n/a	j	8	0.03000000000000001	1	j	1	0.581307007561918
6	60	n/a	n/a	n/a	j	8	0.02000000000000001	1	j	1	0.6029615066290717
6	61	n/a	n/a	n/a	j	8	0.01000000000000001	2	j	1	0.5684062244199595
6	62	n/a	n/a	n/a	f	8	0.02000000000000001	1	f	1	0.5721895038077491
6	63	n/a	n/a	n/a	j	8	0.01000000000000001	0	j	1	0.6011066448572819
6	64	n/a	n/a	n/a	j	8	0.02000000000000001	1	j	1	0.5971967809909984
6	65	n/a	n/a	n/a	j	8	0.01000000000000001	2	j	1	0.57066421784657
6	66	n/a	n/a	n/a	j	8	0.02000000000000001	1	j	1	0.5922739561829076
6	67	n/a	n/a	n/a	j	8	0.01000000000000001	1	j	1	0.5390500290941418
6	68	n/a	n/a	n/a	f	8	1.040834085586084e-17	0	f	1	0.4798372876248322
6	69	n/a	n/a	n/a	j	8	0.01000000000000001	0	j	1	0.5649838818626449
6	70	n/a	n/a	n/a	j	8	0.02000000000000001	0	j	1	0.5388336380583496
6	71	n/a	n/a	n/a	j	8	0.03000000000000001	0	j	1	0.5522173809040396
7	0	f	1	1.525826227449215	f	1	0.1	2	f	1	0.4091295920025004
7	1	n/a	n/a	n/a	j	1	0.11	1	j	1	0.3911722720695252
7	2	n/a	n/a	n/a	f	1	0.1	1	f	1	0.4020881877568172
7	3	n/a	n/a	n/a	f	1	0.09000000000000001	1	f	1	0.4060904240832315
7	4	n/a	n/a	n/a	f	1	0.08000000000000002	1	f	1	0.3990969166698051
7	5	n/a	n/a	n/a	j	1	0.07000000000000002	1	j	1	0.3670767452622385
7	6	n/a	n/a	n/a	f	1	0.06000000000000002	1	f	1	0.4276736481042462
7	7	n/a	n/a	n/a	f	1	0.05000000000000002	1	f	1	0.3920281428090675
7	8	n/a	n/a	n/a	f	1	0.04000000000000001	1	f	1	0.4449393150007381
7	9	n/a	n/a	n/a	j	1	0.03000000000000001	2	j	1	0.3610885010839411
7	10	n/a	n/a	n/a	f	1	0.04000000000000001	1	f	1	0.3718937979028851
7	11	n/a	n/a	n/a	f	1	0.03000000000000001	1	f	1	0.4090551808549208
7	12	n/a	n/a	n/a	f	1	0.02000000000000001	2	f	1	0.3921336298753886
7	13	n/a	n/a	n/a	j	1	0.03000000000000001	1	j	1	0.3987858723739919
7	14	n/a	n/a	n/a	f	1	0.02000000000000001	1	f	1	0.379756005564559
7	15	n/a	n/a	n/a	f	1	0.01000000000000001	1	f	1	0.3601148839697998
7	16	n/a	n/a	n/a	f	1	1.040834085586084e-17	0	f	1	0.3913803952000308
7	17	n/a	n/a	n/a	j	1	0.01000000000000001	1	j	1	0.393073605169775
7	18	n/a	n/a	n/a	f	1	1.040834085586084e-17	2	f	1	0.3977238742027112
7	19	n/a	n/a	n/a	f	1	0.01000000000000001	2	f	1	0.3869097392798722
7	20	n/a	n/a	n/a	f	1	0.02000000000000001	1	f	1	0.4223220326275623
7	21	n/a	n/a	n/a	j	1	0.01000000000000001	2	j	1	0.3236080910282908
7	22	n/a	n/a	n/a	f	1	0.02000000000000001	0	f	1	0.4178898652298813
7	23	n/a	n/a	n/a	f	1	0.03000000000000001	2	f	1	0.3696004520552378
7	24	n/a	n/a	n/a	f	1	0.04000000000000001	1	f	1	0.3927092471403739
7	25	n/a	n/a	n/a	j	1	0.03000000000000001	1	j	1	0.4055219343263161
7	26	n/a	n/a	n/a	f	1	0.02000000000000001	2	f	1	0.4405148453097354
7	27	n/a	n/a	n/a	f	1	0.03000000000000001	2	f	1	0.4203916193091572
7	28	n/a	n/a	n/a	f	1	0.04000000000000001	1	f	1	0.4166191737294866
7	29	n/a	n/a	n/a	j	1	0.03000000000000001	1	j	1	0.4060456633560534
7	30	n/a	n/a	n/a	f	1	0.02000000000000001	1	f	1	0.3824162753426208
7	31	n/a	n/a	n/a	f	1	0.01000000000000001	1	f	1	0.373398841751623
7	32	n/a	n/a	n/a	f	1	1.040834085586084e-17	0	f	1	0.3713868897830253
7	33	n/a	n/a	n/a	j	1	0.01000000000000001	0	j	1	0.45142477389345
7	34	n/a	n/a	n/a	f	1	0.02000000000000001	2	f	1	0.4244788154883281
7	35	n/a	n/a	n/a	f	1	0.03000000000000001	2	f	1	0.3503202672873158
7	36	n/a	n/a	n/a	f	1	0.04000000000000001	1	f	1	0.3742755248058529
7	37	n/a	n/a	n/a	j	1	0.03000000000000001	1	j	1	0.3900572452639608
7	38	n/a	n/a	n/a	f	1	0.02000000000000001	1	f	1	0.3973064875408454
7	39	n/a	n/a	n/a	f	1	0.01000000000000001	2	f	1	0.3473515191144543
7	40	n/a	n/a	n/a	f	1	0.02000000000000001	0	f	1	0.3847615094236971
7	41	n/a	n/a	n/a	j	1	0.03000000000000001	1	j	1	0.3992331945555634
7	42	n/a	n/a	n/a	f	1	0.02000000000000001	1	f	1	0.362740086426129
7	43	n/a	n/a	n/a	f	1	0.01000000000000001	0	f	1	0.3123383660167747
7	44	n/a	n/a	n/a	f	1	0.02000000000000001	0	f	1	0.3892313100441243
7	45	n/a	n/a	n/a	j	1	0.03000000000000001	1	j	1	0.4131207094214915
7	46	n/a	n/a	n/a	f	1	0.02000000000000001	2	f	1	0.4025509053499263
7	47	n/a	n/a	n/a	f	1	0.03000000000000001	1	f	1	0.3862905016885634
7	48	n/a	n/a	n/a	f	1	0.02000000000000001	1	f	1	0.4142117878091085
7	49	n/a	n/a	n/a	j	1	0.01000000000000001	2	j	1	0.3946704512763972
7	50	n/a	n/a	n/a	f	1	0.02000000000000001	1	f	1	0.4011353829555446
7	51	n/a	n/a	n/a	f	1	0.01000000000000001	2	f	1	0.3883931155141909
7	52	n/a	n/a	n/a	f	1	0.02000000000000001	1	f	1	0.3836051430935186
7	53	n/a	n/a	n/a	j	1	0.01000000000000001	1	j	1	0.3334568767440942
7	54	n/a	n/a	n/a	f	1	1.040834085586084e-17	0	f	1	0.3629499201579165
7	55	n/a	n/a	n/a	f	1	0.01000000000000001	0	f	1	0.4027672963857185
7	56	n/a	n/a	n/a	f	1	0.02000000000000001	1	f	1	0.3538002000823326
7	57	n/a	n/a	n/a	j	1	0.01000000000000001	0	j	1	0.4124487282970222
7	58	n/a	n/a	n/a	f	1	0.02000000000000001	2	f	1	0.3759385141547682
7	59	n/a	n/a	n/a	f	1	0.03000000000000001	1	f	1	0.3727402603362862
7	60	n/a	n/a	n/a	f	1	0.02000000000000001	1	f	1	0.4088741422401654
7	61	n/a	n/a	n/a	j	1	0.01000000000000001	2	j	1	0.4196765880587918
7	62	n/a	n/a	n/a	f	1	0.02000000000000001	2	f	1	0.4077722300462483
7	63	n/a	n/a	n/a	f	1	0.03000000000000001	1	f	1	1.219361210240095
7	64	n/a	n/a	n/a	f	1	0.02000000000000001	1	j	0	0.4157675794904208
7	65	n/a	n/a	n/a	j	1	0.03000000000000001	1	f	0	0.4395751551146532
7	66	n/a	n/a	n/a	f	1	0.02000000000000001	2	f	1	0.3255008711239498
7	67	n/a	n/a	n/a	f	1	0.03000000000000001	0	f	1	0.3562500659299985
7	68	n/a	n/a	n/a	f	1	0.04000000000000001	1	f	1	0.3944934040646331
7	69	n/a	n/a	n/a	j	1	0.03000000000000001	1	j	1	0.3724317819414864
7	70	n/a	n/a	n/a	f	1	0.02000000000000001	1	f	1	0.3774213201904786
7	71	n/a	n/a	n/a	f	1	0.01000000000000001	0	f	1	0.423180469268118
8	0	f	1	1.045572978660857	f	11	0.1	0	f	1	0.9631633461522142
8	1	n/a	n/a	n/a	f	11	0.11	1	f	1	2.084484876717397
8	2	n/a	n/a	n/a	j	11	0.1	1	f	0	0.7767990605370869
8	3	n/a	n/a	n/a	f	11	0.11	0	f	1	0.8146221610077191
8	4	n/a	n/a	n/a	f	11	0.12	0	f	1	0.8105740235532721
8	5	n/a	n/a	n/a	f	11	0.13	0	f	1	0.7575773213065986
8	6	n/a	n/a	n/a	f	11	0.14	0	f	1	0.7644462399421172
8	7	n/a	n/a	n/a	f	11	0.15	0	f	1	0.8194865402783762
8	8	n/a	n/a	n/a	j	11	0.16	0	j	1	0.8226337611649797
8	9	n/a	n/a	n/a	f	11	0.17	1	f	1	0.900310160486697
8	10	n/a	n/a	n/a	f	11	0.16	1	f	1	0.7618888913275441
8	11	n/a	n/a	n/a	f	11	0.15	0	f	1	0.8084195214923966
8	12	n/a	n/a	n/a	f	11	0.16	0	f	1	0.7171204653750465
8	13	n/a	n/a	n/a	f	11	0.17	0	f	1	0.7058096859364014
8	14	n/a	n/a	n/a	j	11	0.18	0	j	1	0.6350583699859271
8	15	n/a	n/a	n/a	f	11	0.1900000000000001	0	f	1	0.7790502115585696
8	16	n/a	n/a	n/a	f	11	0.2000000000000001	0	f	1	0.8007585945579194
8	17	n/a	n/a	n/a	f	11	0.2100000000000001	1	f	1	0.7250277188650216
8	18	n/a	n/a	n/a	f	11	0.2000000000000001	0	f	1	0.837446711211669
8	19	n/a	n/a	n/a	f	11	0.2100000000000001	1	f	1	0.9110205189444969
8	20	n/a	n/a	n/a	j	11	0.2000000000000001	1	f	0	0.9089632360464748
8	21	n/a	n/a	n/a	f	11	0.1900000000000001	1	f	1	0.7967201505089179
8	22	n/a	n/a	n/a	f	11	0.18	0	f	1	0.8096993362014473
8	23	n/a	n/a	n/a	f	11	0.1900000000000001	1	f	1	0.871706914733295
8	24	n/a	n/a	n/a	f	11	0.18	1	f	1	0.8498380203327542
8	25	n/a	n/a	n/a	f	11	0.17	1	f	1	0.7711606342782034
8	26	n/a	n/a	n/a	j	11	0.16	0	j	1	0.8156368325471703
8	27	n/a	n/a	n/a	f	11	0.17	0	f	1	0.8460818254625337
8	28	n/a	n/a	n/a	f	11	0.18	1	f	1	0.8633968146896223
8	29	n/a	n/a	n/a	f	11	0.17	1	f	1	0.9024059319071966
8	30	n/a	n/a	n/a	f	11	0.16	1	f	1	0.8853452520415885
8	31	n/a	n/a	n/a	f	11	0.15	1	f	1	0.7809387151501141
8	32	n/a	n/a	n/a	j	11	0.14	0	j	1	0.8539457437254896
8	33	n/a	n/a	n/a	f	11	0.15	1	f	1	0.7812471935449139
8	34	n/a	n/a	n/a	f	11	0.14	0	f	1	0.7956746881500294
8	35	n/a	n/a	n/a	f	11	0.15	0	f	1	0.8962802694422862
8	36	n/a	n/a	n/a	f	11	0.16	1	f	1	0.8528201682147483
8	37	n/a	n/a	n/a	f	11	0.15	1	f	1	0.8101078847594181
8	38	n/a	n/a	n/a	j	11	0.14	0	j	1	0.8171310425914271
8	39	n/a	n/a	n/a	f	11	0.15	0	f	1	0.7515973450317688
8	40	n/a	n/a	n/a	f	11	0.16	0	f	1	0.851860806109471
8	41	n/a	n/a	n/a	f	11	0.17	1	f	1	0.8169941945052415
8	42	n/a	n/a	n/a	f	11	0.16	0	f	1	0.7906911370064336
8	43	n/a	n/a	n/a	f	11	0.17	0	f	1	0.7951073387921497
8	44	n/a	n/a	n/a	j	11	0.18	0	f	0	0.8016204524010391
8	45	n/a	n/a	n/a	f	11	0.1900000000000001	1	f	1	0.8216048346148455
8	46	n/a	n/a	n/a	f	11	0.18	1	f	1	0.8245616085805523
8	47	n/a	n/a	n/a	f	11	0.17	1	f	1	0.8374854848370887
8	48	n/a	n/a	n/a	f	11	0.16	1	f	1	0.7945003605091188
8	49	n/a	n/a	n/a	f	11	0.15	0	f	1	0.8406309951224102
8	50	n/a	n/a	n/a	j	11	0.16	1	j	1	0.8453970148293593
8	51	n/a	n/a	n/a	f	11	0.15	1	f	1	0.8274479628016707
8	52	n/a	n/a	n/a	f	11	0.14	0	f	1	0.8423173626852076
8	53	n/a	n/a	n/a	f	11	0.15	1	f	1	0.8152151693830092
8	54	n/a	n/a	n/a	f	11	0.14	0	f	1	0.8619191404577577
8	55	n/a	n/a	n/a	f	11	0.15	1	f	1	0.8262006495151581
8	56	n/a	n/a	n/a	j	11	0.14	0	j	1	0.7991511997443013
8	57	n/a	n/a	n/a	f	11	0.15	0	f	1	0.8205947246769938
8	58	n/a	n/a	n/a	f	11	0.16	0	f	1	0.7700302120665583
8	59	n/a	n/a	n/a	f	11	0.17	0	f	1	0.9259415219621587
8	60	n/a	n/a	n/a	f	11	0.18	1	f	1	0.8989157355044881
8	61	n/a	n/a	n/a	f	11	0.17	1	f	1	0.9106498887122143
8	62	n/a	n/a	n/a	j	11	0.16	1	j	1	0.8586031402646768
8	63	n/a	n/a	n/a	f	11	0.15	1	f	1	0.8708618778000528
8	64	n/a	n/a	n/a	f	11	0.14	1	f	1	0.844839358878744
8	65	n/a	n/a	n/a	f	11	0.13	0	f	1	0.8351915687890141
8	66	n/a	n/a	n/a	f	11	0.14	0	f	1	0.8553133692876145
8	67	n/a	n/a	n/a	f	11	0.15	1	f	1	0.8855140313480661
8	68	n/a	n/a	n/a	j	11	0.14	1	j	1	0.7294755667717254
8	69	n/a	n/a	n/a	f	11	0.13	0	f	1	0.7535354560568521
8	70	n/a	n/a	n/a	f	11	0.14	0	f	1	0.8464746935096628
8	71	n/a	n/a	n/a	f	11	0.15	1	f	1	1.019912822066544
9	0	f	1	1.481968126368884	f	5	0.1	2	f	1	0.6823117291078233
9	1	n/a	n/a	n/a	j	5	0.11	1	j	1	0.7398466560171073
9	2	n/a	n/a	n/a	f	5	0.1	2	f	1	0.6331744279959821
9	3	n/a	n/a	n/a	f	5	0.11	1	f	1	0.5982285585414502
9	4	n/a	n/a	n/a	f	5	0.1	1	f	1	0.6266695822923793
9	5	n/a	n/a	n/a	j	5	0.09000000000000001	1	j	1	0.5772768314200221
9	6	n/a	n/a	n/a	f	5	0.08000000000000002	1	f	1	0.629702763104433
9	7	n/a	n/a	n/a	f	5	0.07000000000000002	1	f	1	0.6390876908280916
9	8	n/a	n/a	n/a	f	5	0.06000000000000002	1	f	1	0.630052866126789
9	9	n/a	n/a	n/a	j	5	0.05000000000000002	1	j	1	0.6109594219760766
9	10	n/a	n/a	n/a	f	5	0.04000000000000001	1	f	1	0.637829543735279
9	11	n/a	n/a	n/a	f	5	0.03000000000000001	2	f	1	0.6131866245832498
9	12	n/a	n/a	n/a	f	5	0.04000000000000001	1	f	1	0.6253829251782008
9	13	n/a	n/a	n/a	j	5	0.03000000000000001	2	j	1	0.60805852764679
9	14	n/a	n/a	n/a	f	5	0.04000000000000001	1	f	1	0.6593497606154415
9	15	n/a	n/a	n/a	f	5	0.03000000000000001	2	f	1	0.6177678993735753
9	16	n/a	n/a	n/a	f	5	0.04000000000000001	1	f	1	0.6226787499726925
9	17	n/a	n/a	n/a	j	5	0.03000000000000001	2	j	1	1.418686150032954
9	18	n/a	n/a	n/a	f	5	0.04000000000000001	2	f	1	0.0167108619461942
9	19	n/a	n/a	n/a	f	5	0.05000000000000002	0	f	1	0.5165630375031469
9	20	n/a	n/a	n/a	f	5	0.06000000000000002	0	f	1	0.5616402269515675
9	21	n/a	n/a	n/a	j	5	0.07000000000000002	1	j	1	0.5825782692645589
9	22	n/a	n/a	n/a	f	5	0.06000000000000002	1	f	1	0.5784329126490775
9	23	n/a	n/a	n/a	f	5	0.05000000000000002	1	f	1	0.578580309442259
9	24	n/a	n/a	n/a	f	5	0.04000000000000001	1	f	1	0.6174292003597657
9	25	n/a	n/a	n/a	j	5	0.03000000000000001	1	j	1	0.6633243422238593
9	26	n/a	n/a	n/a	f	5	0.02000000000000001	2	f	1	0.5733290492280503
9	27	n/a	n/a	n/a	f	5	0.03000000000000001	1	f	1	0.5289432277168089
9	28	n/a	n/a	n/a	f	5	0.02000000000000001	0	f	1	0.607272791550713
9	29	n/a	n/a	n/a	j	5	0.03000000000000001	1	j	1	0.5652627098388621
9	30	n/a	n/a	n/a	f	5	0.02000000000000001	1	f	1	0.6412011384618381
9	31	n/a	n/a	n/a	f	5	0.01000000000000001	2	f	1	0.6059542032180616
9	32	n/a	n/a	n/a	f	5	0.02000000000000001	2	f	1	0.579205249036022
9	33	n/a	n/a	n/a	j	5	0.03000000000000001	1	j	1	0.6271807669145346
9	34	n/a	n/a	n/a	f	5	0.02000000000000001	2	f	1	0.6558179395869956
9	35	n/a	n/a	n/a	f	5	0.03000000000000001	2	f	1	0.6210465514413954
9	36	n/a	n/a	n/a	f	5	0.04000000000000001	1	f	1	0.8670218634779303
9	37	n/a	n/a	n/a	j	5	0.03000000000000001	2	j	1	0.5059270901911077
9	38	n/a	n/a	n/a	f	5	0.04000000000000001	0	f	1	0.5040231911898445
9	39	n/a	n/a	n/a	f	5	0.05000000000000002	0	f	1	0.5518296446607565
9	40	n/a	n/a	n/a	f	5	0.06000000000000002	1	f	1	0.6768492096598493
9	41	n/a	n/a	n/a	j	5	0.05000000000000002	2	j	1	0.5039636052515561
9	42	n/a	n/a	n/a	f	5	0.06000000000000002	0	f	1	0.5317982209162437
9	43	n/a	n/a	n/a	f	5	0.07000000000000002	1	f	1	0.5937972464453196
9	44	n/a	n/a	n/a	f	5	0.06000000000000002	1	f	1	0.5926117998969858
9	45	n/a	n/a	n/a	j	5	0.05000000000000002	1	j	1	0.5667774470930453
9	46	n/a	n/a	n/a	f	5	0.04000000000000001	1	f	1	0.4974305346295296
9	47	n/a	n/a	n/a	f	5	0.03000000000000001	0	f	1	0.5463808100194001
9	48	n/a	n/a	n/a	f	5	0.04000000000000001	1	f	1	0.6015847578601097
9	49	n/a	n/a	n/a	j	5	0.03000000000000001	1	j	1	0.5505657955618517
9	50	n/a	n/a	n/a	f	5	0.02000000000000001	0	f	1	0.5314746322146675
9	51	n/a	n/a	n/a	f	5	0.03000000000000001	0	f	1	0.5447041358638671
9	52	n/a	n/a	n/a	f	5	0.04000000000000001	0	f	1	0.6143911728413514
9	53	n/a	n/a	n/a	j	5	0.05000000000000002	1	j	1	0.6194465692315134
9	54	n/a	n/a	n/a	f	5	0.04000000000000001	1	f	1	0.663391625867007
9	55	n/a	n/a	n/a	f	5	0.03000000000000001	2	f	1	0.531405923069542
9	56	n/a	n/a	n/a	f	5	0.04000000000000001	0	f	1	0.5500189734175365
9	57	n/a	n/a	n/a	j	5	0.05000000000000002	1	j	1	0.5333180899760919
9	58	n/a	n/a	n/a	f	5	0.04000000000000001	0	f	1	0.5232797126409423
9	59	n/a	n/a	n/a	f	5	0.05000000000000002	0	f	1	0.5622346608251974
9	60	n/a	n/a	n/a	f	5	0.06000000000000002	1	f	1	0.577230360091562
9	61	n/a	n/a	n/a	j	5	0.05000000000000002	1	j	1	0.5262113977914851
9	62	n/a	n/a	n/a	f	5	0.04000000000000001	0	f	1	0.5230154247747123
9	63	n/a	n/a	n/a	f	5	0.05000000000000002	0	f	1	0.6629748094037495
9	64	n/a	n/a	n/a	f	5	0.06000000000000002	2	f	1	0.7321084669329139
9	65	n/a	n/a	n/a	j	5	0.07000000000000002	2	j	1	0.6157131823765667
9	66	n/a	n/a	n/a	f	5	0.08000000000000002	1	f	1	0.675023713209157
9	67	n/a	n/a	n/a	f	5	0.07000000000000002	2	f	1	0.5659130233489122
9	68	n/a	n/a	n/a	f	5	0.08000000000000002	1	f	1	0.5298686628993892
9	69	n/a	n/a	n/a	j	5	0.07000000000000002	1	j	1	0.4489937246598856
9	70	n/a	n/a	n/a	f	5	0.06000000000000002	0	f	1	0.4528206243739987
9	71	n/a	n/a	n/a	f	5	0.07000000000000002	0	f	1	0.5287584827983665
10	0	j	1	0.8339579403109383	j	12	0.1	0	j	1	1.063301933349067
10	1	n/a	n/a	n/a	j	12	0.11	1	j	1	0.995275034718361
10	2	n/a	n/a	n/a	f	12	0.1	1	f	1	1.0241026543099
10	3	n/a	n/a	n/a	j	12	0.09000000000000001	1	j	1	1.019719239044207
10	4	n/a	n/a	n/a	j	12	0.08000000000000002	1	j	1	1.025190881697199
10	5	n/a	n/a	n/a	j	12	0.07000000000000002	1	j	1	0.9910261867353256
10	6	n/a	n/a	n/a	j	12	0.06000000000000002	1	j	1	1.019981531209851
10	7	n/a	n/a	n/a	j	12	0.05000000000000002	1	j	1	0.96990568030742
10	8	n/a	n/a	n/a	f	12	0.04000000000000001	1	f	1	1.068979703433797
10	9	n/a	n/a	n/a	j	12	0.03000000000000001	2	j	1	1.004762313405081
10	10	n/a	n/a	n/a	j	12	0.04000000000000001	1	j	1	1.058654800417571
10	11	n/a	n/a	n/a	j	12	0.03000000000000001	2	j	1	1.033645812634859
10	12	n/a	n/a	n/a	j	12	0.04000000000000001	2	j	1	1.14865864641979
10	13	n/a	n/a	n/a	j	12	0.05000000000000002	2	j	1	1.220543805784473
10	14	n/a	n/a	n/a	f	12	0.06000000000000002	2	f	1	1.041446153556535
10	15	n/a	n/a	n/a	j	12	0.07000000000000002	1	j	1	0.9034220289486257
10	16	n/a	n/a	n/a	j	12	0.06000000000000002	0	j	1	0.9023280995588721
10	17	n/a	n/a	n/a	j	12	0.07000000000000002	0	j	1	0.911313601929578
10	18	n/a	n/a	n/a	j	12	0.08000000000000002	1	j	1	0.8942053103328362
10	19	n/a	n/a	n/a	j	12	0.07000000000000002	0	j	1	0.9472108506852237
10	20	n/a	n/a	n/a	f	12	0.08000000000000002	1	f	1	0.9701078163361672
10	21	n/a	n/a	n/a	j	12	0.07000000000000002	1	j	1	0.9570234286766208
10	22	n/a	n/a	n/a	j	12	0.06000000000000002	1	j	1	0.9047879439112876
10	23	n/a	n/a	n/a	j	12	0.05000000000000002	0	j	1	0.9480231010984426
10	24	n/a	n/a	n/a	j	12	0.06000000000000002	1	j	1	0.8788546613450308
10	25	n/a	n/a	n/a	j	12	0.05000000000000002	0	j	1	0.8738862205100304
10	26	n/a	n/a	n/a	f	12	0.06000000000000002	0	f	1	0.9028883214141388
10	27	n/a	n/a	n/a	j	12	0.07000000000000002	0	j	1	0.9649044529505773
10	28	n/a	n/a	n/a	j	12	0.08000000000000002	1	j	1	0.9866228144583147
10	29	n/a	n/a	n/a	j	12	0.07000000000000002	1	j	1	0.9838103011843486
10	30	n/a	n/a	n/a	j	12	0.06000000000000002	1	j	1	0.9226560274892108
10	31	n/a	n/a	n/a	j	12	0.05000000000000002	0	j	1	0.9439373304194305
10	32	n/a	n/a	n/a	f	12	0.06000000000000002	1	f	1	0.8742269152244262
10	33	n/a	n/a	n/a	j	12	0.05000000000000002	0	j	1	0.9652286118543998
10	34	n/a	n/a	n/a	j	12	0.06000000000000002	1	j	1	0.9285353633986233
10	35	n/a	n/a	n/a	j	12	0.05000000000000002	0	j	1	0.956230850177235
10	36	n/a	n/a	n/a	j	12	0.06000000000000002	1	j	1	0.8812244140408438
10	37	n/a	n/a	n/a	j	12	0.05000000000000002	0	j	1	0.9112485990881396
10	38	n/a	n/a	n/a	f	12	0.06000000000000002	0	f	1	0.9072603326712851
10	39	n/a	n/a	n/a	j	12	0.07000000000000002	0	j	1	1.011627525738731
10	40	n/a	n/a	n/a	j	12	0.08000000000000002	1	j	1	1.014793848335103
10	41	n/a	n/a	n/a	j	12	0.07000000000000002	1	j	1	0.9239415442007157
10	42	n/a	n/a	n/a	j	12	0.06000000000000002	1	j	1	0.9530973141008872
10	43	n/a	n/a	n/a	j	12	0.05000000000000002	1	j	1	0.9357432661472558
10	44	n/a	n/a	n/a	f	12	0.04000000000000001	0	f	1	0.8373067270240426
10	45	n/a	n/a	n/a	j	12	0.05000000000000002	0	j	1	0.8495851364732516
10	46	n/a	n/a	n/a	j	12	0.06000000000000002	0	j	1	0.8702588909200131
10	47	n/a	n/a	n/a	j	12	0.07000000000000002	0	j	1	0.8683960463458789
10	48	n/a	n/a	n/a	j	12	0.08000000000000002	0	j	1	0.964275521953823
10	49	n/a	n/a	n/a	j	12	0.09000000000000001	1	j	1	0.9834476537525916
10	50	n/a	n/a	n/a	f	12	0.08000000000000002	1	f	1	0.9175775379826518
10	51	n/a	n/a	n/a	j	12	0.07000000000000002	0	j	1	0.8954523385200446
10	52	n/a	n/a	n/a	j	12	0.08000000000000002	0	j	1	1.012095375132049
10	53	n/a	n/a	n/a	j	12	0.09000000000000001	1	j	1	0.8413816638949356
10	54	n/a	n/a	n/a	j	12	0.08000000000000002	0	j	1	0.9322935539694299
10	55	n/a	n/a	n/a	j	12	0.09000000000000001	1	j	1	0.8822382302805636
10	56	n/a	n/a	n/a	f	12	0.08000000000000002	0	f	1	0.9592400825749792
10	57	n/a	n/a	n/a	j	12	0.09000000000000001	1	j	1	0.8861660554593982
10	58	n/a	n/a	n/a	j	12	0.08000000000000002	0	j	1	0.9230602995430672
10	59	n/a	n/a	n/a	j	12	0.09000000000000001	1	j	1	0.8779243794579088
10	60	n/a	n/a	n/a	j	12	0.08000000000000002	0	j	1	0.9389731660867255
10	61	n/a	n/a	n/a	j	12	0.09000000000000001	1	j	1	0.9356198177683837
10	62	n/a	n/a	n/a	f	12	0.08000000000000002	1	f	1	0.9805855330487248
10	63	n/a	n/a	n/a	j	12	0.07000000000000002	1	j	1	0.8694868396341917
10	64	n/a	n/a	n/a	j	12	0.06000000000000002	0	j	1	0.851955459369492
10	65	n/a	n/a	n/a	j	12	0.07000000000000002	0	j	1	0.7919421565948142
10	66	n/a	n/a	n/a	j	12	0.08000000000000002	0	j	1	0.9396710913260904
10	67	n/a	n/a	n/a	j	12	0.09000000000000001	1	j	1	1.026304483000786
10	68	n/a	n/a	n/a	f	12	0.08000000000000002	1	f	1	0.9545225298988953
10	69	n/a	n/a	n/a	j	12	0.07000000000000002	1	j	1	0.9262460089539672
10	70	n/a	n/a	n/a	j	12	0.06000000000000002	0	j	1	0.9094536083557614
10	71	n/a	n/a	n/a	j	12	0.07000000000000002	0	j	1	1.001397561081831
11	0	j	1	0.9870424819218897	j	6	0.1	2	j	1	0.7333341126086452
11	1	n/a	n/a	n/a	f	6	0.11	2	f	1	0.6874823059697519
11	2	n/a	n/a	n/a	j	6	0.12	1	j	1	0.5982927060831571
11	3	n/a	n/a	n/a	j	6	0.11	1	j	1	0.6032092586847284
11	4	n/a	n/a	n/a	j	6	0.1	1	j	1	0.6839196941218688
11	5	n/a	n/a	n/a	f	6	0.09000000000000001	2	f	1	0.6398862564328738
11	6	n/a	n/a	n/a	j	6	0.1	1	j	1	0.6118674660501711
11	7	n/a	n/a	n/a	j	6	0.09000000000000001	1	j	1	0.650129335695965
11	8	n/a	n/a	n/a	j	6	0.08000000000000002	1	j	1	0.648231138697156
11	9	n/a	n/a	n/a	f	6	0.07000000000000002	1	f	1	0.6129947521621943
11	10	n/a	n/a	n/a	j	6	0.06000000000000002	1	j	1	0.5201684143794409
11	11	n/a	n/a	n/a	j	6	0.05000000000000002	0	j	1	0.6069985251760954
11	12	n/a	n/a	n/a	j	6	0.06000000000000002	1	j	1	0.6278681434469036
11	13	n/a	n/a	n/a	f	6	0.05000000000000002	1	f	1	0.6259023777074617
11	14	n/a	n/a	n/a	j	6	0.04000000000000001	1	j	1	0.580871374488197
11	15	n/a	n/a	n/a	j	6	0.03000000000000001	1	j	1	0.5999117900046258
11	16	n/a	n/a	n/a	j	6	0.02000000000000001	1	j	1	0.5748503437880572
11	17	n/a	n/a	n/a	f	6	0.01000000000000001	0	f	1	0.5648521655784862
11	18	n/a	n/a	n/a	j	6	0.02000000000000001	1	j	1	0.5924213529779081
11	19	n/a	n/a	n/a	j	6	0.01000000000000001	1	j	1	0.6286786832588405
11	20	n/a	n/a	n/a	j	6	1.040834085586084e-17	2	j	1	0.6416256526299549
11	21	n/a	n/a	n/a	f	6	0.01000000000000001	2	f	1	0.6442728078000073
11	22	n/a	n/a	n/a	j	6	0.02000000000000001	2	j	1	0.5935329585790896
11	23	n/a	n/a	n/a	j	6	0.03000000000000001	1	j	1	0.6875624191197858
11	24	n/a	n/a	n/a	j	6	0.02000000000000001	2	j	1	0.6444974667410861
11	25	n/a	n/a	n/a	f	6	0.03000000000000001	2	f	1	0.6894053066844208
11	26	n/a	n/a	n/a	j	6	0.04000000000000001	2	j	1	0.5753934596305044
11	27	n/a	n/a	n/a	j	6	0.05000000000000002	1	j	1	0.5313853958577965
11	28	n/a	n/a	n/a	j	6	0.04000000000000001	0	j	1	0.5525480971136858
11	29	n/a	n/a	n/a	f	6	0.05000000000000002	1	f	1	0.5573283718294988
11	30	n/a	n/a	n/a	j	6	0.04000000000000001	1	j	1	0.5933134314400377
11	31	n/a	n/a	n/a	j	6	0.03000000000000001	1	j	1	0.589844332451321
11	32	n/a	n/a	n/a	j	6	0.02000000000000001	1	j	1	0.5843438946794777
11	33	n/a	n/a	n/a	f	6	0.01000000000000001	1	f	1	0.5565047174095525
11	34	n/a	n/a	n/a	j	6	1.040834085586084e-17	0	j	1	0.5513615101644973
11	35	n/a	n/a	n/a	j	6	0.01000000000000001	0	j	1	0.6431726062073722
11	36	n/a	n/a	n/a	j	6	0.02000000000000001	2	j	1	0.6228221553647018
11	37	n/a	n/a	n/a	f	6	0.03000000000000001	2	f	1	0.5870024538580765
11	38	n/a	n/a	n/a	j	6	0.04000000000000001	1	j	1	0.5750989511452644
11	39	n/a	n/a	n/a	j	6	0.03000000000000001	1	j	1	0.5954613761950895
11	40	n/a	n/a	n/a	j	6	0.02000000000000001	1	j	1	0.5760164035236812
11	41	n/a	n/a	n/a	f	6	0.01000000000000001	0	f	1	0.6148479033308831
11	42	n/a	n/a	n/a	j	6	0.02000000000000001	2	j	1	0.5778584357849468
11	43	n/a	n/a	n/a	j	6	0.03000000000000001	1	j	1	0.5898614384623215
11	44	n/a	n/a	n/a	j	6	0.02000000000000001	1	j	1	0.6698462939402816
11	45	n/a	n/a	n/a	f	6	0.01000000000000001	2	f	1	0.5627612408570712
11	46	n/a	n/a	n/a	j	6	0.02000000000000001	0	j	1	0.5264902257677022
11	47	n/a	n/a	n/a	j	6	0.03000000000000001	0	j	1	0.6118215649221384
11	48	n/a	n/a	n/a	j	6	0.04000000000000001	1	j	1	0.6238322653007344
11	49	n/a	n/a	n/a	f	6	0.03000000000000001	2	f	1	0.5976928553045582
11	50	n/a	n/a	n/a	j	6	0.04000000000000001	1	j	1	0.604628202281674
11	51	n/a	n/a	n/a	j	6	0.03000000000000001	1	j	1	0.6186793646484148
11	52	n/a	n/a	n/a	j	6	0.02000000000000001	2	j	1	0.6704313195077702
11	53	n/a	n/a	n/a	f	6	0.03000000000000001	2	f	1	0.6774918254650402
11	54	n/a	n/a	n/a	j	6	0.04000000000000001	2	j	1	0.5551507766558643
11	55	n/a	n/a	n/a	j	6	0.05000000000000002	1	j	1	0.6415201655636338
11	56	n/a	n/a	n/a	j	6	0.04000000000000001	2	j	1	0.7200282021094608
11	57	n/a	n/a	n/a	f	6	0.05000000000000002	2	f	1	0.7172992231862736
11	58	n/a	n/a	n/a	j	6	0.06000000000000002	2	j	1	0.6168980587244732
11	59	n/a	n/a	n/a	j	6	0.07000000000000002	1	j	1	0.6600696385685296
11	60	n/a	n/a	n/a	j	6	0.06000000000000002	2	j	1	0.5630677235531039
11	61	n/a	n/a	n/a	f	6	0.07000000000000002	1	f	1	0.5682103605977318
11	62	n/a	n/a	n/a	j	6	0.06000000000000002	1	j	1	0.5887310162488575
11	63	n/a	n/a	n/a	j	6	0.05000000000000002	1	j	1	0.5870942561141419
11	64	n/a	n/a	n/a	j	6	0.04000000000000001	1	j	1	0.5842743302346207
11	65	n/a	n/a	n/a	f	6	0.03000000000000001	1	f	1	0.6275955876753869
11	66	n/a	n/a	n/a	j	6	0.02000000000000001	2	j	1	0.6402101302355732
11	67	n/a	n/a	n/a	j	6	0.03000000000000001	2	j	1	0.6400963752657844
11	68	n/a	n/a	n/a	j	6	0.04000000000000001	2	j	1	0.6109408904649172
11	69	n/a	n/a	n/a	f	6	0.05000000000000002	1	f	1	0.5819225388513587
11	70	n/a	n/a	n/a	j	6	0.04000000000000001	1	j	1	0.5659298442569707
11	71	n/a	n/a	n/a	j	6	0.03000000000000001	1	j	1	0.5887566752626299
12	0	f	1	1.044471636665548	f	9	0.04000000000000001	0	f	1	0.9111134616050549
12	1	n/a	n/a	n/a	j	9	0.05000000000000002	0	j	1	1.011183909859028
12	2	n/a	n/a	n/a	f	9	0.06000000000000002	1	f	1	1.032300709985066
12	3	n/a	n/a	n/a	f	9	0.05000000000000002	1	f	1	1.041233753921915
12	4	n/a	n/a	n/a	f	9	0.04000000000000001	2	f	1	1.094127249903977
12	5	n/a	n/a	n/a	j	9	0.05000000000000002	2	j	1	1.122979388112071
12	6	n/a	n/a	n/a	f	9	0.06000000000000002	2	f	1	1.18407949277389
12	7	n/a	n/a	n/a	f	9	0.07000000000000002	2	f	1	1.004837009653784
12	8	n/a	n/a	n/a	f	9	0.08000000000000002	1	f	1	0.8970508952297678
12	9	n/a	n/a	n/a	j	9	0.07000000000000002	0	j	1	0.9324743074848811
12	10	n/a	n/a	n/a	f	9	0.08000000000000002	1	f	1	1.082706136696288
12	11	n/a	n/a	n/a	f	9	0.07000000000000002	2	f	1	1.180671690322924
12	12	n/a	n/a	n/a	f	9	0.08000000000000002	2	f	1	0.9142626781922445
12	13	n/a	n/a	n/a	j	9	0.09000000000000001	1	j	1	0.9695096761570312
12	14	n/a	n/a	n/a	f	9	0.08000000000000002	1	f	1	1.015438744943822
12	15	n/a	n/a	n/a	f	9	0.07000000000000002	1	f	1	1.062349698748221
12	16	n/a	n/a	n/a	f	9	0.06000000000000002	2	f	1	1.034013021666397
12	17	n/a	n/a	n/a	j	9	0.07000000000000002	1	j	1	1.039248886470887
12	18	n/a	n/a	n/a	f	9	0.06000000000000002	1	f	1	0.9384616963616281
12	19	n/a	n/a	n/a	f	9	0.05000000000000002	1	f	1	1.040332267153644
12	20	n/a	n/a	n/a	f	9	0.04000000000000001	2	f	1	0.9881441090183216
12	21	n/a	n/a	n/a	j	9	0.05000000000000002	1	j	1	1.055000956512231
12	22	n/a	n/a	n/a	f	9	0.04000000000000001	2	f	1	1.052005694022228
12	23	n/a	n/a	n/a	f	9	0.05000000000000002	2	f	1	1.10890570283118
12	24	n/a	n/a	n/a	f	9	0.06000000000000002	2	f	1	0.9068723113268788
12	25	n/a	n/a	n/a	j	9	0.07000000000000002	0	j	1	0.854694701896733
12	26	n/a	n/a	n/a	f	9	0.08000000000000002	0	f	1	0.8926937091782747
12	27	n/a	n/a	n/a	f	9	0.09000000000000001	0	f	1	0.9217069289898063
12	28	n/a	n/a	n/a	f	9	0.1	1	f	1	0.9321729565945134
12	29	n/a	n/a	n/a	j	9	0.09000000000000001	1	j	1	0.9695704024961742
12	30	n/a	n/a	n/a	f	9	0.08000000000000002	1	f	1	0.9094906713798991
12	31	n/a	n/a	n/a	f	9	0.07000000000000002	0	f	1	0.890321105482144
12	32	n/a	n/a	n/a	f	9	0.08000000000000002	0	f	1	0.9594473504075722
12	33	n/a	n/a	n/a	j	9	0.09000000000000001	1	j	1	0.9310114584604889
12	34	n/a	n/a	n/a	f	9	0.08000000000000002	1	f	1	0.9053820926856133
12	35	n/a	n/a	n/a	f	9	0.07000000000000002	0	f	1	0.9113498096521653
12	36	n/a	n/a	n/a	f	9	0.08000000000000002	1	f	1	0.9162364267376688
12	37	n/a	n/a	n/a	j	9	0.07000000000000002	0	j	1	0.9350062821831671
12	38	n/a	n/a	n/a	f	9	0.08000000000000002	1	f	1	0.9030633729234978
12	39	n/a	n/a	n/a	f	9	0.07000000000000002	0	f	1	1.027007254944692
12	40	n/a	n/a	n/a	f	9	0.08000000000000002	1	f	1	1.025160946179312
12	41	n/a	n/a	n/a	j	9	0.07000000000000002	1	j	1	0.8935954810476687
12	42	n/a	n/a	n/a	f	9	0.06000000000000002	0	f	1	0.8899242460302048
12	43	n/a	n/a	n/a	f	9	0.07000000000000002	0	f	1	0.9600560392918851
12	44	n/a	n/a	n/a	f	9	0.08000000000000002	1	f	1	0.9739404180545534
12	45	n/a	n/a	n/a	j	9	0.07000000000000002	1	j	1	0.9957166548974783
12	46	n/a	n/a	n/a	f	9	0.06000000000000002	1	f	1	1.001657002247157
12	47	n/a	n/a	n/a	f	9	0.05000000000000002	1	f	1	1.016802664204079
12	48	n/a	n/a	n/a	f	9	0.04000000000000001	1	f	1	1.039657720128162
12	49	n/a	n/a	n/a	j	9	0.03000000000000001	2	j	1	1.025496794190985
12	50	n/a	n/a	n/a	f	9	0.04000000000000001	1	f	1	1.006390805632691
12	51	n/a	n/a	n/a	f	9	0.03000000000000001	1	f	1	1.021448086536111
12	52	n/a	n/a	n/a	f	9	0.02000000000000001	2	f	1	0.9539825501578889
12	53	n/a	n/a	n/a	j	9	0.03000000000000001	1	j	1	1.039991572439249
12	54	n/a	n/a	n/a	f	9	0.02000000000000001	2	f	1	1.074885268561047
12	55	n/a	n/a	n/a	f	9	0.03000000000000001	2	f	1	0.9613161820871028
12	56	n/a	n/a	n/a	f	9	0.04000000000000001	1	f	1	0.9612694256557006
12	57	n/a	n/a	n/a	j	9	0.03000000000000001	1	j	1	0.9372018386675336
12	58	n/a	n/a	n/a	f	9	0.02000000000000001	0	f	1	0.8626726602342387
12	59	n/a	n/a	n/a	f	9	0.03000000000000001	0	f	1	1.003915280771253
12	60	n/a	n/a	n/a	f	9	0.04000000000000001	1	f	1	1.121025881679088
12	61	n/a	n/a	n/a	j	9	0.03000000000000001	1	f	0	0.9009179940676404
12	62	n/a	n/a	n/a	f	9	0.04000000000000001	1	j	0	0.07387857982575952
12	63	n/a	n/a	n/a	f	9	0.05000000000000002	0	f	1	0.8970563121310988
12	64	n/a	n/a	n/a	f	9	0.06000000000000002	0	f	1	0.8997442366289761
12	65	n/a	n/a	n/a	j	9	0.07000000000000002	0	j	1	0.9603784875944257
12	66	n/a	n/a	n/a	f	9	0.08000000000000002	1	f	1	1.173268779049977
12	67	n/a	n/a	n/a	f	9	0.07000000000000002	2	f	1	0.9885594999814202
12	68	n/a	n/a	n/a	f	9	0.08000000000000002	1	f	1	1.050503786273111
12	69	n/a	n/a	n/a	j	9	0.07000000000000002	1	j	1	1.017740358694937
12	70	n/a	n/a	n/a	f	9	0.06000000000000002	1	f	1	1.036279568097598
12	71	n/a	n/a	n/a	f	9	0.05000000000000002	2	f	1	0.9705306199030019
13	0	f	1	1.418162421003217	f	3	1.040834085586084e-17	2	f	1	0.4276881882142334
13	1	n/a	n/a	n/a	f	3	0.01000000000000001	2	f	1	0.3935055319416279
13	2	n/a	n/a	n/a	j	3	0.02000000000000001	1	j	1	0.4135218453739071
13	3	n/a	n/a	n/a	f	3	0.01000000000000001	2	f	1	0.4342648791644024
13	4	n/a	n/a	n/a	f	3	0.02000000000000001	2	f	1	0.3345348405255208
13	5	n/a	n/a	n/a	f	3	0.03000000000000001	0	f	1	0.396284403395839
13	6	n/a	n/a	n/a	f	3	0.04000000000000001	1	f	1	0.2994147748613614
13	7	n/a	n/a	n/a	f	3	0.03000000000000001	0	f	1	0.3900829042813712
13	8	n/a	n/a	n/a	j	3	0.04000000000000001	1	j	1	0.353933056767346
13	9	n/a	n/a	n/a	f	3	0.03000000000000001	0	f	1	0.4063279125330155
13	10	n/a	n/a	n/a	f	3	0.04000000000000001	1	f	1	0.3552941250254662
13	11	n/a	n/a	n/a	f	3	0.03000000000000001	1	f	1	0.4084658787814988
13	12	n/a	n/a	n/a	f	3	0.02000000000000001	2	f	1	0.2843349710437906
13	13	n/a	n/a	n/a	f	3	0.03000000000000001	0	f	1	0.3914117562198953
13	14	n/a	n/a	n/a	j	3	0.04000000000000001	1	j	1	0.3632891893721535
13	15	n/a	n/a	n/a	f	3	0.03000000000000001	1	f	1	0.4251784513307939
13	16	n/a	n/a	n/a	f	3	0.02000000000000001	2	f	1	0.359281251041466
13	17	n/a	n/a	n/a	f	3	0.03000000000000001	1	f	1	0.3560715932162566
13	18	n/a	n/a	n/a	f	3	0.02000000000000001	0	f	1	0.3983294269855833
13	19	n/a	n/a	n/a	f	3	0.03000000000000001	1	f	1	0.3612721055978909
13	20	n/a	n/a	n/a	j	3	0.02000000000000001	0	j	1	0.37378458229432
13	21	n/a	n/a	n/a	f	3	0.03000000000000001	1	f	1	0.4260323263697501
13	22	n/a	n/a	n/a	f	3	0.02000000000000001	2	f	1	0.3762173421309853
13	23	n/a	n/a	n/a	f	3	0.03000000000000001	1	f	1	0.3641538982174097
13	24	n/a	n/a	n/a	f	3	0.02000000000000001	1	f	1	0.3620125107663625
13	25	n/a	n/a	n/a	f	3	0.01000000000000001	0	f	1	0.3521087007156893
13	26	n/a	n/a	n/a	j	3	0.02000000000000001	0	j	1	0.3889205508476152
13	27	n/a	n/a	n/a	f	3	0.03000000000000001	1	f	1	0.4238436122886924
13	28	n/a	n/a	n/a	f	3	0.02000000000000001	2	f	1	0.3829893267029547
13	29	n/a	n/a	n/a	f	3	0.03000000000000001	1	f	1	0.4288753453620302
13	30	n/a	n/a	n/a	f	3	0.02000000000000001	2	f	1	0.320976331267957
13	31	n/a	n/a	n/a	f	3	0.03000000000000001	0	f	1	0.3897185462519701
13	32	n/a	n/a	n/a	j	3	0.04000000000000001	1	j	1	0.3618297615521442
13	33	n/a	n/a	n/a	f	3	0.03000000000000001	1	f	1	0.3897453456684161
13	34	n/a	n/a	n/a	f	3	0.02000000000000001	1	f	1	0.3377829868750268
13	35	n/a	n/a	n/a	f	3	0.01000000000000001	0	f	1	0.3726929337062757
13	36	n/a	n/a	n/a	f	3	0.02000000000000001	1	f	1	0.3532767561537185
13	37	n/a	n/a	n/a	f	3	0.01000000000000001	0	f	1	0.3497477861255902
13	38	n/a	n/a	n/a	j	3	0.02000000000000001	0	j	1	0.4227439808928466
13	39	n/a	n/a	n/a	f	3	0.03000000000000001	2	f	1	0.4366699842812523
13	40	n/a	n/a	n/a	f	3	0.04000000000000001	2	f	1	0.383648763419842
13	41	n/a	n/a	n/a	f	3	0.05000000000000002	1	f	1	0.370297236895567
13	42	n/a	n/a	n/a	f	3	0.04000000000000001	1	f	1	0.3736021181812248
13	43	n/a	n/a	n/a	f	3	0.03000000000000001	1	f	1	0.3332912335408764
13	44	n/a	n/a	n/a	j	3	0.02000000000000001	0	j	1	0.4045474619106244
13	45	n/a	n/a	n/a	f	3	0.03000000000000001	1	f	1	0.3933598457497283
13	46	n/a	n/a	n/a	f	3	0.02000000000000001	1	f	1	0.2886471112651634
13	47	n/a	n/a	n/a	f	3	0.01000000000000001	0	f	1	0.3824975288935093
13	48	n/a	n/a	n/a	f	3	0.02000000000000001	1	f	1	0.3624256209277519
13	49	n/a	n/a	n/a	f	3	0.01000000000000001	0	f	1	0.3993880039543001
13	50	n/a	n/a	n/a	j	3	0.02000000000000001	1	j	1	0.4053277811035514
13	51	n/a	n/a	n/a	f	3	0.01000000000000001	2	f	1	0.3963422787310265
13	52	n/a	n/a	n/a	f	3	0.02000000000000001	1	f	1	0.3723100441638962
13	53	n/a	n/a	n/a	f	3	0.01000000000000001	0	f	1	0.36009549715709
13	54	n/a	n/a	n/a	f	3	0.02000000000000001	0	f	1	0.4032713535034418
13	55	n/a	n/a	n/a	f	3	0.03000000000000001	1	f	1	0.3402371292249882
13	56	n/a	n/a	n/a	j	3	0.02000000000000001	0	j	1	0.386455859792477
13	57	n/a	n/a	n/a	f	3	0.03000000000000001	1	f	1	0.4094312279921724
13	58	n/a	n/a	n/a	f	3	0.02000000000000001	2	f	1	0.3342129624215886
13	59	n/a	n/a	n/a	f	3	0.03000000000000001	0	f	1	0.4292895959242742
13	60	n/a	n/a	n/a	f	3	0.04000000000000001	2	f	1	0.3691682401822618
13	61	n/a	n/a	n/a	f	3	0.05000000000000002	1	f	1	0.3602206561336061
13	62	n/a	n/a	n/a	j	3	0.04000000000000001	1	j	1	0.3478333384191501
13	63	n/a	n/a	n/a	f	3	0.03000000000000001	0	f	1	0.4301460368642438
13	64	n/a	n/a	n/a	f	3	0.04000000000000001	2	f	1	0.3950008823849203
13	65	n/a	n/a	n/a	f	3	0.05000000000000002	1	f	1	0.3740406022570824
13	66	n/a	n/a	n/a	f	3	0.04000000000000001	1	f	1	0.3640335859417974
13	67	n/a	n/a	n/a	f	3	0.03000000000000001	1	f	1	0.3459057761010627
13	68	n/a	n/a	n/a	j	3	0.02000000000000001	0	j	1	0.4161105550065258
13	69	n/a	n/a	n/a	f	3	0.03000000000000001	1	f	1	0.4450274109567545
13	70	n/a	n/a	n/a	f	3	0.02000000000000001	2	f	1	0.3389131239891867
13	71	n/a	n/a	n/a	f	3	0.03000000000000001	0	f	1	0.3680663279865257
14	0	j	1	1.684846554806427	j	4	0.02000000000000001	0	j	1	0.3543034019003244
14	1	n/a	n/a	n/a	j	4	0.03000000000000001	0	j	1	0.3657242300087091
14	2	n/a	n/a	n/a	f	4	0.04000000000000001	1	f	1	0.3730284966186446
14	3	n/a	n/a	n/a	j	4	0.03000000000000001	1	j	1	0.4089243198723125
14	4	n/a	n/a	n/a	j	4	0.02000000000000001	1	j	1	0.382107796947821
14	5	n/a	n/a	n/a	j	4	0.01000000000000001	1	j	1	0.420925041746159
14	6	n/a	n/a	n/a	j	4	1.040834085586084e-17	2	j	1	0.3947531303292635
14	7	n/a	n/a	n/a	j	4	0.01000000000000001	2	j	1	0.3792294255308661
14	8	n/a	n/a	n/a	f	4	0.02000000000000001	1	f	1	0.4037514622086746
14	9	n/a	n/a	n/a	j	4	0.01000000000000001	2	j	1	0.4251134484875365
14	10	n/a	n/a	n/a	j	4	0.02000000000000001	2	j	1	0.3269449035342404
14	11	n/a	n/a	n/a	j	4	0.03000000000000001	0	j	1	0.4040659277070517
14	12	n/a	n/a	n/a	j	4	0.04000000000000001	1	j	1	0.37692923727991
14	13	n/a	n/a	n/a	j	4	0.03000000000000001	1	j	1	0.404868199611883
14	14	n/a	n/a	n/a	f	4	0.02000000000000001	2	f	1	0.3850588689110737
14	15	n/a	n/a	n/a	j	4	0.03000000000000001	1	j	1	0.3328952293904877
14	16	n/a	n/a	n/a	j	4	0.02000000000000001	0	j	1	0.3937481521952577
14	17	n/a	n/a	n/a	j	4	0.03000000000000001	1	j	1	0.3849274377280381
14	18	n/a	n/a	n/a	j	4	0.02000000000000001	1	j	1	0.3925852285610745
14	19	n/a	n/a	n/a	j	4	0.01000000000000001	1	j	1	0.4113279994890036
14	20	n/a	n/a	n/a	f	4	1.040834085586084e-17	2	f	1	0.4157969448096992
14	21	n/a	n/a	n/a	j	4	0.01000000000000001	2	j	1	0.3466801081904123
14	22	n/a	n/a	n/a	j	4	0.02000000000000001	0	j	1	0.3848992128096143
14	23	n/a	n/a	n/a	j	4	0.03000000000000001	1	j	1	0.3757819941565685
14	24	n/a	n/a	n/a	j	4	0.02000000000000001	1	j	1	0.3804445224996016
14	25	n/a	n/a	n/a	j	4	0.01000000000000001	1	j	1	0.343397464717782
14	26	n/a	n/a	n/a	f	4	1.040834085586084e-17	0	f	1	0.3796490929962602
14	27	n/a	n/a	n/a	j	4	0.01000000000000001	1	j	1	0.3842956557273283
14	28	n/a	n/a	n/a	j	4	1.040834085586084e-17	0	j	1	0.3755128595857968
14	29	n/a	n/a	n/a	j	4	0.01000000000000001	0	j	1	0.3824866950872092
14	30	n/a	n/a	n/a	j	4	0.02000000000000001	1	j	1	0.4033948018823139
14	31	n/a	n/a	n/a	j	4	0.01000000000000001	2	j	1	0.3508719361343537
14	32	n/a	n/a	n/a	f	4	0.02000000000000001	0	f	1	0.3893958128483064
14	33	n/a	n/a	n/a	j	4	0.03000000000000001	1	j	1	0.3733469535200129
14	34	n/a	n/a	n/a	j	4	0.02000000000000001	1	j	1	0.3613875711707806
14	35	n/a	n/a	n/a	j	4	0.01000000000000001	0	j	1	0.3660375551062316
14	36	n/a	n/a	n/a	j	4	0.02000000000000001	1	j	1	0.427248278636398
14	37	n/a	n/a	n/a	j	4	0.01000000000000001	2	j	1	0.2803555427326501
14	38	n/a	n/a	n/a	f	4	0.02000000000000001	0	f	1	0.4084510535740264
14	39	n/a	n/a	n/a	j	4	0.03000000000000001	1	j	1	0.4063105214227107
14	40	n/a	n/a	n/a	j	4	0.02000000000000001	2	j	1	0.3472366237401729
14	41	n/a	n/a	n/a	j	4	0.03000000000000001	0	j	1	0.3711961577628244
14	42	n/a	n/a	n/a	j	4	0.04000000000000001	1	j	1	0.398196855401693
14	43	n/a	n/a	n/a	j	4	0.03000000000000001	1	j	1	0.3391728502519982
14	44	n/a	n/a	n/a	f	4	0.02000000000000001	0	f	1	0.3842828262222611
14	45	n/a	n/a	n/a	j	4	0.03000000000000001	1	j	1	0.3960734292631969
14	46	n/a	n/a	n/a	j	4	0.02000000000000001	1	j	1	0.4002267686828418
14	47	n/a	n/a	n/a	j	4	0.01000000000000001	2	j	1	0.3641037205852626
14	48	n/a	n/a	n/a	j	4	0.02000000000000001	1	j	1	0.3998564235480444
14	49	n/a	n/a	n/a	j	4	0.01000000000000001	2	j	1	0.411784159778108
14	50	n/a	n/a	n/a	f	4	0.02000000000000001	2	f	1	0.3438821350246144
14	51	n/a	n/a	n/a	j	4	0.03000000000000001	0	j	1	0.3660577972186729
14	52	n/a	n/a	n/a	j	4	0.04000000000000001	1	j	1	0.3640435644483659
14	53	n/a	n/a	n/a	j	4	0.03000000000000001	1	j	1	0.3549559962139028
14	54	n/a	n/a	n/a	j	4	0.02000000000000001	0	j	1	0.3974213829133078
14	55	n/a	n/a	n/a	j	4	0.03000000000000001	1	j	1	0.3295487234772736
14	56	n/a	n/a	n/a	f	4	0.02000000000000001	0	f	1	0.386009392910637
14	57	n/a	n/a	n/a	j	4	0.03000000000000001	1	j	1	0.4079849147783534
14	58	n/a	n/a	n/a	j	4	0.02000000000000001	2	j	1	0.3867919929052732
14	59	n/a	n/a	n/a	j	4	0.03000000000000001	1	j	1	0.3972859603272809
14	60	n/a	n/a	n/a	j	4	0.02000000000000001	1	j	1	0.4006490020492492
14	61	n/a	n/a	n/a	j	4	0.01000000000000001	2	j	1	0.405755716472413
14	62	n/a	n/a	n/a	f	4	0.02000000000000001	2	j	0	0.4127247052711027
14	63	n/a	n/a	n/a	j	4	0.01000000000000001	2	j	1	0.3708922409696243
14	64	n/a	n/a	n/a	j	4	0.02000000000000001	1	j	1	0.3678698939638707
14	65	n/a	n/a	n/a	j	4	0.01000000000000001	0	j	1	0.3714159700011805
14	66	n/a	n/a	n/a	j	4	0.02000000000000001	1	j	1	0.3927819476848526
14	67	n/a	n/a	n/a	j	4	0.01000000000000001	1	j	1	0.3963944520655787
14	68	n/a	n/a	n/a	f	4	1.040834085586084e-17	2	f	1	0.4007470765118342
14	69	n/a	n/a	n/a	j	4	0.01000000000000001	2	j	1	0.3794760371874872
14	70	n/a	n/a	n/a	j	4	0.02000000000000001	1	j	1	0.398278964254132
14	71	n/a	n/a	n/a	j	4	0.01000000000000001	2	j	1	0.3705250319380866
15	0	f	1	0.6113588473272102	f	7	0.02000000000000001	0	f	1	0.6776529070666584
15	1	n/a	n/a	n/a	f	7	0.03000000000000001	2	f	1	0.6425046164858941
15	2	n/a	n/a	n/a	j	7	0.04000000000000001	2	j	1	0.6144279507661849
15	3	n/a	n/a	n/a	f	7	0.05000000000000002	1	f	1	0.5951292344871035
15	4	n/a	n/a	n/a	f	7	0.04000000000000001	1	f	1	0.5933499242619291
15	5	n/a	n/a	n/a	f	7	0.03000000000000001	1	f	1	0.5962579460992856
15	6	n/a	n/a	n/a	f	7	0.02000000000000001	1	f	1	0.6081061393742857
15	7	n/a	n/a	n/a	f	7	0.01000000000000001	2	f	1	0.4999707772312831
15	8	n/a	n/a	n/a	j	7	0.02000000000000001	0	j	1	0.5443263781235146
15	9	n/a	n/a	n/a	f	7	0.03000000000000001	0	f	1	0.5472480847674888
15	10	n/a	n/a	n/a	f	7	0.04000000000000001	1	f	1	0.5141890083050384
15	11	n/a	n/a	n/a	f	7	0.03000000000000001	0	f	1	0.5203642782016686
15	12	n/a	n/a	n/a	f	7	0.04000000000000001	0	f	1	0.5971517351626972
15	13	n/a	n/a	n/a	f	7	0.05000000000000002	1	f	1	0.5230510622968723
15	14	n/a	n/a	n/a	j	7	0.04000000000000001	0	j	1	0.5771950076668872
15	15	n/a	n/a	n/a	f	7	0.05000000000000002	1	f	1	0.5491479923675797
15	16	n/a	n/a	n/a	f	7	0.04000000000000001	1	f	1	0.6172376130380144
15	17	n/a	n/a	n/a	f	7	0.03000000000000001	1	f	1	0.5105976013383042
15	18	n/a	n/a	n/a	f	7	0.02000000000000001	0	f	1	0.5138688408023881
15	19	n/a	n/a	n/a	f	7	0.03000000000000001	0	f	1	0.5109981670921115
15	20	n/a	n/a	n/a	j	7	0.04000000000000001	0	j	1	0.5338349766025203
15	21	n/a	n/a	n/a	f	7	0.05000000000000002	0	f	1	0.5809090077109431
15	22	n/a	n/a	n/a	f	7	0.06000000000000002	1	f	1	0.5529783132842567
15	23	n/a	n/a	n/a	f	7	0.05000000000000002	1	f	1	0.5289971116508241
15	24	n/a	n/a	n/a	f	7	0.04000000000000001	0	f	1	0.5647347043031914
15	25	n/a	n/a	n/a	f	7	0.05000000000000002	1	f	1	0.5358916893019341
15	26	n/a	n/a	n/a	j	7	0.04000000000000001	0	j	1	0.5963517440577562
15	27	n/a	n/a	n/a	f	7	0.05000000000000002	1	f	1	0.5956637973231409
15	28	n/a	n/a	n/a	f	7	0.04000000000000001	1	f	1	0.5457079735951993
15	29	n/a	n/a	n/a	f	7	0.03000000000000001	0	f	1	0.5665573497553851
15	30	n/a	n/a	n/a	f	7	0.04000000000000001	1	f	1	0.5804876296460861
15	31	n/a	n/a	n/a	f	7	0.03000000000000001	1	f	1	0.4984979497021413
15	32	n/a	n/a	n/a	j	7	0.02000000000000001	0	j	1	0.5555080071808334
15	33	n/a	n/a	n/a	f	7	0.03000000000000001	0	f	1	0.5306355823850026
15	34	n/a	n/a	n/a	f	7	0.04000000000000001	0	f	1	0.5914608504717762
15	35	n/a	n/a	n/a	f	7	0.05000000000000002	1	f	1	0.5230547686005593
15	36	n/a	n/a	n/a	f	7	0.04000000000000001	0	f	1	0.5474331147852354
15	37	n/a	n/a	n/a	f	7	0.05000000000000002	1	f	1	0.5205447466159967
15	38	n/a	n/a	n/a	j	7	0.04000000000000001	0	j	1	0.5428869073148235
15	39	n/a	n/a	n/a	f	7	0.05000000000000002	1	f	1	0.5873591141826182
15	40	n/a	n/a	n/a	f	7	0.04000000000000001	1	f	1	0.5703138297249097
15	41	n/a	n/a	n/a	f	7	0.03000000000000001	1	f	1	0.4992834006970952
15	42	n/a	n/a	n/a	f	7	0.02000000000000001	0	f	1	0.4982077177191968
15	43	n/a	n/a	n/a	f	7	0.03000000000000001	0	f	1	0.4959200738758227
15	44	n/a	n/a	n/a	j	7	0.04000000000000001	0	j	1	0.5341303403893107
15	45	n/a	n/a	n/a	f	7	0.05000000000000002	0	f	1	0.5721652702941356
15	46	n/a	n/a	n/a	f	7	0.06000000000000002	1	f	1	0.5557087177076028
15	47	n/a	n/a	n/a	f	7	0.05000000000000002	1	f	1	0.5030433018691838
15	48	n/a	n/a	n/a	f	7	0.04000000000000001	0	f	1	0.5220338248545886
15	49	n/a	n/a	n/a	f	7	0.05000000000000002	0	f	1	0.5290786503010168
15	50	n/a	n/a	n/a	j	7	0.06000000000000002	0	j	1	0.5189892400339886
15	51	n/a	n/a	n/a	f	7	0.07000000000000002	1	f	1	0.4996908088560303
15	52	n/a	n/a	n/a	f	7	0.06000000000000002	0	f	1	0.5938422922736208
15	53	n/a	n/a	n/a	f	7	0.07000000000000002	1	f	1	0.5263887301025534
15	54	n/a	n/a	n/a	f	7	0.06000000000000002	1	f	1	0.5537979763012117
15	55	n/a	n/a	n/a	f	7	0.05000000000000002	1	f	1	0.5177276717386121
15	56	n/a	n/a	n/a	j	7	0.04000000000000001	1	f	0	1.153473988457336
15	57	n/a	n/a	n/a	f	7	0.05000000000000002	2	f	1	0.5206824500019138
15	58	n/a	n/a	n/a	f	7	0.06000000000000002	0	f	1	0.5348006109124981
15	59	n/a	n/a	n/a	f	7	0.07000000000000002	1	f	1	0.5426730821818637
15	60	n/a	n/a	n/a	f	7	0.06000000000000002	1	f	1	0.5392687009334622
15	61	n/a	n/a	n/a	f	7	0.05000000000000002	0	f	1	0.5516146791233041
15	62	n/a	n/a	n/a	j	7	0.06000000000000002	1	j	1	0.5415355324621487
15	63	n/a	n/a	n/a	f	7	0.05000000000000002	1	f	1	0.5876664521765633
15	64	n/a	n/a	n/a	f	7	0.04000000000000001	1	f	1	0.5074535165549605
15	65	n/a	n/a	n/a	f	7	0.03000000000000001	0	f	1	0.5233290349733579
15	66	n/a	n/a	n/a	f	7	0.04000000000000001	0	f	1	0.5742100087845756
15	67	n/a	n/a	n/a	f	7	0.05000000000000002	1	f	1	0.4952423907470802
15	68	n/a	n/a	n/a	j	7	0.04000000000000001	0	j	1	0.4793774210356787
15	69	n/a	n/a	n/a	f	7	0.05000000000000002	0	f	1	0.515386429060527
15	70	n/a	n/a	n/a	f	7	0.06000000000000002	0	f	1	0.5589426090482448
15	71	n/a	n/a	n/a	f	7	0.07000000000000002	1	f	1	0.5071724077770341
16	0	j	1	1.24517104442748	j	2	1.040834085586084e-17	2	j	1	0.3855178802004957
16	1	n/a	n/a	n/a	f	2	0.01000000000000001	1	f	1	0.4039695638439298
16	2	n/a	n/a	n/a	j	2	1.040834085586084e-17	2	j	1	0.4162602326032356
16	3	n/a	n/a	n/a	j	2	0.01000000000000001	2	j	1	0.3653798289906263
16	4	n/a	n/a	n/a	j	2	0.02000000000000001	1	j	1	0.3783647166856099
16	5	n/a	n/a	n/a	f	2	0.01000000000000001	1	f	1	0.3373875529250654
16	6	n/a	n/a	n/a	j	2	1.040834085586084e-17	0	j	1	0.3934174359856115
16	7	n/a	n/a	n/a	j	2	0.01000000000000001	1	j	1	0.4068798664811766
16	8	n/a	n/a	n/a	j	2	1.040834085586084e-17	2	j	1	0.387261267800568
16	9	n/a	n/a	n/a	f	2	0.01000000000000001	1	f	1	0.3853439690901723
16	10	n/a	n/a	n/a	j	2	1.040834085586084e-17	0	j	1	0.3882115067008272
16	11	n/a	n/a	n/a	j	2	0.01000000000000001	1	j	1	0.336140524737857
16	12	n/a	n/a	n/a	j	2	1.040834085586084e-17	0	j	1	0.3813616897787142
16	13	n/a	n/a	n/a	f	2	0.01000000000000001	1	f	1	0.4082147055232781
16	14	n/a	n/a	n/a	j	2	1.040834085586084e-17	2	j	1	0.4042740508375573
16	15	n/a	n/a	n/a	j	2	0.01000000000000001	2	j	1	0.384332718751466
16	16	n/a	n/a	n/a	j	2	0.02000000000000001	1	j	1	0.3391896711618756
16	17	n/a	n/a	n/a	f	2	0.01000000000000001	0	f	1	0.359166925869431
16	18	n/a	n/a	n/a	j	2	0.02000000000000001	0	j	1	0.3800841558713728
16	19	n/a	n/a	n/a	j	2	0.03000000000000001	1	j	1	0.4200936896195344
16	20	n/a	n/a	n/a	j	2	0.02000000000000001	2	j	1	0.3350956325793959
16	21	n/a	n/a	n/a	f	2	0.03000000000000001	0	f	1	0.3662126066174096
16	22	n/a	n/a	n/a	j	2	0.04000000000000001	1	j	1	0.3681236331231048
16	23	n/a	n/a	n/a	j	2	0.03000000000000001	1	j	1	0.3681413093327137
16	24	n/a	n/a	n/a	j	2	0.02000000000000001	1	j	1	0.3709618054144812
16	25	n/a	n/a	n/a	f	2	0.01000000000000001	0	f	1	0.3857724746612803
16	26	n/a	n/a	n/a	j	2	0.02000000000000001	1	j	1	0.3779456194224622
16	27	n/a	n/a	n/a	j	2	0.01000000000000001	1	j	1	0.3596541620772769
16	28	n/a	n/a	n/a	j	2	1.040834085586084e-17	0	j	1	0.393830831246305
16	29	n/a	n/a	n/a	f	2	0.01000000000000001	1	f	1	0.4128284817361418
16	30	n/a	n/a	n/a	j	2	1.040834085586084e-17	2	j	1	0.6817532178556576
16	31	n/a	n/a	n/a	j	2	0.01000000000000001	2	j	1	0.3999228518914606
16	32	n/a	n/a	n/a	j	2	0.02000000000000001	1	j	1	0.3637271032494027
16	33	n/a	n/a	n/a	f	2	0.01000000000000001	0	f	1	0.3688985354110628
16	34	n/a	n/a	n/a	j	2	0.02000000000000001	1	j	1	0.3416680470272695
16	35	n/a	n/a	n/a	j	2	0.01000000000000001	0	j	1	0.4238401910861285
16	36	n/a	n/a	n/a	j	2	0.02000000000000001	2	j	1	0.3806161528063967
16	37	n/a	n/a	n/a	f	2	0.03000000000000001	1	f	1	0.3305939007386769
16	38	n/a	n/a	n/a	j	2	0.02000000000000001	0	j	1	0.3826243984731263
16	39	n/a	n/a	n/a	j	2	0.03000000000000001	1	j	1	0.346629645457142
16	40	n/a	n/a	n/a	j	2	0.02000000000000001	0	j	1	0.3597012036061642
16	41	n/a	n/a	n/a	f	2	0.03000000000000001	1	f	1	0.3655976455283962
16	42	n/a	n/a	n/a	j	2	0.02000000000000001	0	j	1	0.3874944797480566
16	43	n/a	n/a	n/a	j	2	0.03000000000000001	1	j	1	0.338543919255244
16	44	n/a	n/a	n/a	j	2	0.02000000000000001	0	j	1	0.3821177754543896
16	45	n/a	n/a	n/a	f	2	0.03000000000000001	1	f	1	0.3534369824537862
16	46	n/a	n/a	n/a	j	2	0.02000000000000001	0	j	1	0.3663066896751843
16	47	n/a	n/a	n/a	j	2	0.03000000000000001	1	j	1	0.3713124786354456
16	48	n/a	n/a	n/a	j	2	0.02000000000000001	1	j	1	0.4005899863132072
16	49	n/a	n/a	n/a	f	2	0.01000000000000001	2	f	1	0.365268639921851
16	50	n/a	n/a	n/a	j	2	0.02000000000000001	0	j	1	0.3483239958277409
16	51	n/a	n/a	n/a	j	2	0.03000000000000001	0	j	1	0.409348548941125
16	52	n/a	n/a	n/a	j	2	0.04000000000000001	1	j	1	0.4059492994947504
16	53	n/a	n/a	n/a	f	2	0.03000000000000001	1	f	1	0.3952902590663143
16	54	n/a	n/a	n/a	j	2	0.02000000000000001	1	j	1	0.2884136142183706
16	55	n/a	n/a	n/a	j	2	0.01000000000000001	0	j	1	0.4223476916431537
16	56	n/a	n/a	n/a	j	2	0.02000000000000001	2	j	1	0.4022752134751499
16	57	n/a	n/a	n/a	f	2	0.03000000000000001	1	f	1	0.3742467296870018
16	58	n/a	n/a	n/a	j	2	0.02000000000000001	1	j	1	0.2701968531218881
16	59	n/a	n/a	n/a	j	2	0.01000000000000001	0	j	1	0.4292157549789408
16	60	n/a	n/a	n/a	j	2	0.02000000000000001	2	j	1	0.4181829482149624
16	61	n/a	n/a	n/a	f	2	0.03000000000000001	1	f	1	0.4231302916377899
16	62	n/a	n/a	n/a	j	2	0.02000000000000001	2	j	1	0.3870651188772172
16	63	n/a	n/a	n/a	j	2	0.03000000000000001	1	j	1	0.3941293311345362
16	64	n/a	n/a	n/a	j	2	0.02000000000000001	1	j	1	0.3770133418329351
16	65	n/a	n/a	n/a	f	2	0.01000000000000001	0	f	1	0.4700908528739092
16	66	n/a	n/a	n/a	j	2	0.02000000000000001	2	j	1	0.3959471298821882
16	67	n/a	n/a	n/a	j	2	0.03000000000000001	1	j	1	0.3629085806314833
16	68	n/a	n/a	n/a	j	2	0.02000000000000001	0	j	1	0.3669478799802164
16	69	n/a	n/a	n/a	f	2	0.03000000000000001	1	f	1	0.3799262103711953
16	70	n/a	n/a	n/a	j	2	0.02000000000000001	1	j	1	0.3530997089401353
16	71	n/a	n/a	n/a	j	2	0.01000000000000001	0	j	1	0.3590480390939774
17	0	j	1	0.6360904326375021	j	10	0.08000000000000002	0	j	1	0.9464715859176067
17	1	n/a	n/a	n/a	f	10	0.09000000000000001	1	f	1	1.013858434645954
17	2	n/a	n/a	n/a	j	10	0.08000000000000002	1	j	1	0.9783437903315644
17	3	n/a	n/a	n/a	j	10	0.07000000000000002	1	j	1	0.9178523745558778
17	4	n/a	n/a	n/a	j	10	0.06000000000000002	0	j	1	0.9371750392510876
17	5	n/a	n/a	n/a	f	10	0.07000000000000002	1	f	1	1.016267531165795
17	6	n/a	n/a	n/a	j	10	0.06000000000000002	1	j	1	0.9650809299619141
17	7	n/a	n/a	n/a	j	10	0.05000000000000002	1	j	1	1.014743385603651
17	8	n/a	n/a	n/a	j	10	0.04000000000000001	1	j	1	0.9958882852060924
17	9	n/a	n/a	n/a	f	10	0.03000000000000001	1	f	1	0.8720079805243586
17	10	n/a	n/a	n/a	j	10	0.02000000000000001	0	j	1	0.9248028318434081
17	11	n/a	n/a	n/a	j	10	0.03000000000000001	0	j	1	0.8897988019507466
17	12	n/a	n/a	n/a	j	10	0.04000000000000001	0	j	1	0.9180465277786425
17	13	n/a	n/a	n/a	f	10	0.05000000000000002	0	f	1	0.9977525552822044
17	14	n/a	n/a	n/a	j	10	0.06000000000000002	1	j	1	0.9541051432352106
17	15	n/a	n/a	n/a	j	10	0.05000000000000002	1	j	1	0.9745645023467659
17	16	n/a	n/a	n/a	j	10	0.04000000000000001	1	j	1	0.98940197101183
17	17	n/a	n/a	n/a	f	10	0.03000000000000001	1	f	1	0.9982070049682079
17	18	n/a	n/a	n/a	j	10	0.02000000000000001	1	j	1	0.8984704090253217
17	19	n/a	n/a	n/a	j	10	0.01000000000000001	0	j	1	0.9940328532338754
17	20	n/a	n/a	n/a	j	10	0.02000000000000001	1	j	1	0.99725534056779
17	21	n/a	n/a	n/a	f	10	0.01000000000000001	2	f	1	1.000353524223101
17	22	n/a	n/a	n/a	j	10	0.02000000000000001	1	j	1	1.021170969161176
17	23	n/a	n/a	n/a	j	10	0.01000000000000001	2	j	1	1.027105329405458
17	24	n/a	n/a	n/a	j	10	0.02000000000000001	2	j	1	0.8572135619870096
17	25	n/a	n/a	n/a	f	10	0.03000000000000001	0	f	1	0.8376765019565937
17	26	n/a	n/a	n/a	j	10	0.04000000000000001	0	j	1	0.8028634891870752
17	27	n/a	n/a	n/a	j	10	0.05000000000000002	0	j	1	0.8880682438593794
17	28	n/a	n/a	n/a	j	10	0.06000000000000002	0	j	1	0.9147858370215545
17	29	n/a	n/a	n/a	f	10	0.07000000000000002	1	f	1	0.8893543307713117
17	30	n/a	n/a	n/a	j	10	0.06000000000000002	0	j	1	0.9493422596297023
17	31	n/a	n/a	n/a	j	10	0.07000000000000002	1	j	1	0.9606795533854893
17	32	n/a	n/a	n/a	j	10	0.06000000000000002	1	j	1	1.029594253977848
17	33	n/a	n/a	n/a	f	10	0.05000000000000002	1	f	1	0.8495708814643876
17	34	n/a	n/a	n/a	j	10	0.04000000000000001	0	j	1	0.8462320732560329
17	35	n/a	n/a	n/a	j	10	0.05000000000000002	0	j	1	0.9803759844144224
17	36	n/a	n/a	n/a	j	10	0.06000000000000002	1	j	1	0.8490559905385453
17	37	n/a	n/a	n/a	f	10	0.05000000000000002	0	f	1	0.9024144849136064
17	38	n/a	n/a	n/a	j	10	0.06000000000000002	0	j	1	0.9803332193878305
17	39	n/a	n/a	n/a	j	10	0.07000000000000002	1	j	1	0.9382549987312814
17	40	n/a	n/a	n/a	j	10	0.06000000000000002	1	j	1	0.9342855489285284
17	41	n/a	n/a	n/a	f	10	0.05000000000000002	0	f	1	0.8681668258013815
17	42	n/a	n/a	n/a	j	10	0.06000000000000002	0	j	1	0.8038071707815106
17	43	n/a	n/a	n/a	j	10	0.07000000000000002	0	j	1	0.8020851656965533
17	44	n/a	n/a	n/a	j	10	0.08000000000000002	0	j	1	0.9376092468246497
17	45	n/a	n/a	n/a	f	10	0.09000000000000001	1	f	1	0.9847682377876481
17	46	n/a	n/a	n/a	j	10	0.08000000000000002	1	j	1	0.9028809088067646
17	47	n/a	n/a	n/a	j	10	0.07000000000000002	0	j	1	0.9079174885864632
17	48	n/a	n/a	n/a	j	10	0.08000000000000002	1	j	1	0.860667835768254
17	49	n/a	n/a	n/a	f	10	0.07000000000000002	0	f	1	0.9557843832953949
17	50	n/a	n/a	n/a	j	10	0.08000000000000002	1	j	1	0.953714841089095
17	51	n/a	n/a	n/a	j	10	0.07000000000000002	1	j	1	0.9886872248607688
17	52	n/a	n/a	n/a	j	10	0.06000000000000002	1	j	1	0.9536181921284879
17	53	n/a	n/a	n/a	f	10	0.05000000000000002	1	f	1	0.9321886371053552
17	54	n/a	n/a	n/a	j	10	0.04000000000000001	0	j	1	0.9794368644215865
17	55	n/a	n/a	n/a	j	10	0.05000000000000002	1	j	1	0.9054171600091649
17	56	n/a	n/a	n/a	j	10	0.04000000000000001	0	j	1	1.079411804115807
17	57	n/a	n/a	n/a	f	10	0.05000000000000002	2	f	1	1.01942187955683
17	58	n/a	n/a	n/a	j	10	0.06000000000000002	1	j	1	0.8492031022324227
17	59	n/a	n/a	n/a	j	10	0.05000000000000002	0	j	1	0.8372807829073281
17	60	n/a	n/a	n/a	j	10	0.06000000000000002	0	j	1	0.9561356267186056
17	61	n/a	n/a	n/a	f	10	0.07000000000000002	1	f	1	1.025332861587231
17	62	n/a	n/a	n/a	j	10	0.06000000000000002	1	j	1	0.8940730238500691
17	63	n/a	n/a	n/a	j	10	0.05000000000000002	0	j	1	0.8676781640915578
17	64	n/a	n/a	n/a	j	10	0.06000000000000002	0	j	1	0.945552422937908
17	65	n/a	n/a	n/a	f	10	0.07000000000000002	1	f	1	0.9188550718899933
17	66	n/a	n/a	n/a	j	10	0.06000000000000002	0	j	1	0.9215769233069295
17	67	n/a	n/a	n/a	j	10	0.07000000000000002	1	j	1	0.9807660014612338
17	68	n/a	n/a	n/a	j	10	0.06000000000000002	1	j	1	0.9594285337952897
17	69	n/a	n/a	n/a	f	10	0.05000000000000002	1	f	1	0.9069555605801725
17	70	n/a	n/a	n/a	j	10	0.04000000000000001	0	j	1	0.8884360230931634
17	71	n/a	n/a	n/a	j	10	0.05000000000000002	0	j	1	0.8831753545709944
18	0	j	1	0.8182095765714621	j	8	0.04000000000000001	2	j	1	0.7024523462168872
18	1	n/a	n/a	n/a	j	8	0.05000000000000002	2	j	1	0.6334680811833096
18	2	n/a	n/a	n/a	f	8	0.06000000000000002	1	f	1	0.5812394388212851
18	3	n/a	n/a	n/a	j	8	0.05000000000000002	1	j	1	0.5714573665463831
18	4	n/a	n/a	n/a	j	8	0.04000000000000001	1	j	1	0.5684586828538158
18	5	n/a	n/a	n/a	j	8	0.03000000000000001	1	j	1	0.5874221213216515
18	6	n/a	n/a	n/a	j	8	0.02000000000000001	1	j	1	0.601321040192488
18	7	n/a	n/a	n/a	j	8	0.01000000000000001	2	j	1	0.5903224454523297
18	8	n/a	n/a	n/a	f	8	0.02000000000000001	1	f	1	0.5872299638012919
18	9	n/a	n/a	n/a	j	8	0.01000000000000001	1	j	1	0.5829885284238117
18	10	n/a	n/a	n/a	j	8	1.040834085586084e-17	0	j	1	0.5642172474763356
18	11	n/a	n/a	n/a	j	8	0.01000000000000001	0	j	1	0.5847279246227117
18	12	n/a	n/a	n/a	j	8	0.02000000000000001	1	j	1	0.6040768185339402
18	13	n/a	n/a	n/a	j	8	0.01000000000000001	2	j	1	0.5442188953566074
18	14	n/a	n/a	n/a	f	8	0.02000000000000001	0	f	1	0.5179030083490943
18	15	n/a	n/a	n/a	j	8	0.03000000000000001	0	j	1	0.6100462460999552
18	16	n/a	n/a	n/a	j	8	0.04000000000000001	1	j	1	0.5692849031765945
18	17	n/a	n/a	n/a	j	8	0.03000000000000001	1	j	1	0.5409721745072602
18	18	n/a	n/a	n/a	j	8	0.02000000000000001	0	j	1	0.5451454709418613
18	19	n/a	n/a	n/a	j	8	0.03000000000000001	0	j	1	0.5338982688426768
18	20	n/a	n/a	n/a	f	8	0.04000000000000001	0	f	1	0.6025338563595142
18	21	n/a	n/a	n/a	j	8	0.05000000000000002	1	j	1	0.5849773872796504
18	22	n/a	n/a	n/a	j	8	0.04000000000000001	1	j	1	0.534777232696797
18	23	n/a	n/a	n/a	j	8	0.03000000000000001	0	j	1	0.5637231688651809
18	24	n/a	n/a	n/a	j	8	0.04000000000000001	1	j	1	0.5769076266860793
18	25	n/a	n/a	n/a	j	8	0.03000000000000001	1	j	1	0.5266550136711885
18	26	n/a	n/a	n/a	f	8	0.02000000000000001	0	f	1	0.533211177409612
18	27	n/a	n/a	n/a	j	8	0.03000000000000001	0	j	1	0.5856684701157064
18	28	n/a	n/a	n/a	j	8	0.04000000000000001	1	j	1	0.6042535806427622
18	29	n/a	n/a	n/a	j	8	0.03000000000000001	1	j	1	0.5795322589419811
18	30	n/a	n/a	n/a	j	8	0.02000000000000001	1	j	1	0.5206958497110463
18	31	n/a	n/a	n/a	j	8	0.01000000000000001	0	j	1	0.5095273352635559
18	32	n/a	n/a	n/a	f	8	0.02000000000000001	0	f	1	0.7245079812364565
18	33	n/a	n/a	n/a	j	8	0.03000000000000001	2	j	1	0.5366090013540088
18	34	n/a	n/a	n/a	j	8	0.04000000000000001	0	j	1	0.5400624198318837
18	35	n/a	n/a	n/a	j	8	0.05000000000000002	1	j	1	0.5640270856565621
18	36	n/a	n/a	n/a	j	8	0.04000000000000001	1	j	1	0.5322623640113306
18	37	n/a	n/a	n/a	j	8	0.03000000000000001	0	j	1	0.5533797343377955
18	38	n/a	n/a	n/a	f	8	0.04000000000000001	1	f	1	0.6293609279891825
18	39	n/a	n/a	n/a	j	8	0.03000000000000001	2	j	1	0.5532628432629281
18	40	n/a	n/a	n/a	j	8	0.04000000000000001	1	j	1	0.5680544107999594
18	41	n/a	n/a	n/a	j	8	0.03000000000000001	1	j	1	0.5741489973461285
18	42	n/a	n/a	n/a	j	8	0.02000000000000001	1	j	1	0.5941695872807031
18	43	n/a	n/a	n/a	j	8	0.01000000000000001	1	j	1	0.5991713848361542
18	44	n/a	n/a	n/a	f	8	1.040834085586084e-17	2	f	1	0.5631270243884501
18	45	n/a	n/a	n/a	j	8	0.01000000000000001	0	j	1	0.559073470032672
18	46	n/a	n/a	n/a	j	8	0.02000000000000001	0	j	1	0.537028953918707
18	47	n/a	n/a	n/a	j	8	0.03000000000000001	0	j	1	0.5256882389621751
18	48	n/a	n/a	n/a	j	8	0.04000000000000001	0	j	1	0.6029951484506455
18	49	n/a	n/a	n/a	j	8	0.05000000000000002	1	j	1	0.5298646714982169
18	50	n/a	n/a	n/a	f	8	0.04000000000000001	0	f	1	0.5348978300735325
18	51	n/a	n/a	n/a	j	8	0.05000000000000002	0	j	1	0.518525667141148
18	52	n/a	n/a	n/a	j	8	0.06000000000000002	0	j	1	0.5558170557760604
18	53	n/a	n/a	n/a	j	8	0.07000000000000002	1	j	1	0.5888413500179013
18	54	n/a	n/a	n/a	j	8	0.06000000000000002	1	j	1	0.5388726967830735
18	55	n/a	n/a	n/a	j	8	0.05000000000000002	1	j	1	0.5456825996807311
18	56	n/a	n/a	n/a	f	8	0.04000000000000001	1	f	1	0.5376732803251798
18	57	n/a	n/a	n/a	j	8	0.03000000000000001	0	j	1	0.543834295214765
18	58	n/a	n/a	n/a	j	8	0.04000000000000001	0	j	1	0.6185322529545374
18	59	n/a	n/a	n/a	j	8	0.05000000000000002	1	j	1	0.5416544192376023
18	60	n/a	n/a	n/a	j	8	0.04000000000000001	0	j	1	0.5496067185576976
18	61	n/a	n/a	n/a	j	8	0.05000000000000002	1	j	1	0.5416210625171516
18	62	n/a	n/a	n/a	f	8	0.04000000000000001	0	f	1	0.5085326207354228
18	63	n/a	n/a	n/a	j	8	0.05000000000000002	0	j	1	0.5414947631361429
18	64	n/a	n/a	n/a	j	8	0.06000000000000002	1	j	1	0.5804867743445357
18	65	n/a	n/a	n/a	j	8	0.05000000000000002	1	j	1	0.5484315356152365
18	66	n/a	n/a	n/a	j	8	0.04000000000000001	1	j	1	0.5144410368629906
18	67	n/a	n/a	n/a	j	8	0.03000000000000001	0	j	1	0.5188210309279384
18	68	n/a	n/a	n/a	f	8	0.04000000000000001	0	f	1	0.6213536043360364
18	69	n/a	n/a	n/a	j	8	0.05000000000000002	1	j	1	0.5062808995135128
18	70	n/a	n/a	n/a	j	8	0.04000000000000001	0	j	1	0.5222795812096592
18	71	n/a	n/a	n/a	j	8	0.05000000000000002	0	j	1	0.5509962968335458
19	0	f	1	1.572210031023133	f	1	0.02000000000000001	2	f	1	0.320094231310577
19	1	n/a	n/a	n/a	j	1	0.03000000000000001	0	j	1	0.3800587819550856
19	2	n/a	n/a	n/a	f	1	0.04000000000000001	1	f	1	0.4234476081364846
19	3	n/a	n/a	n/a	f	1	0.03000000000000001	2	f	1	0.357790177102288
19	4	n/a	n/a	n/a	f	1	0.04000000000000001	1	f	1	0.4024394311800279
19	5	n/a	n/a	n/a	j	1	0.03000000000000001	1	j	1	0.3492676774221763
19	6	n/a	n/a	n/a	f	1	0.02000000000000001	0	f	1	0.3862944930915546
19	7	n/a	n/a	n/a	f	1	0.03000000000000001	1	f	1	0.3614260596950771
19	8	n/a	n/a	n/a	f	1	0.02000000000000001	0	f	1	0.4050823098477849
19	9	n/a	n/a	n/a	j	1	0.03000000000000001	1	j	1	0.3932212870622607
19	10	n/a	n/a	n/a	f	1	0.02000000000000001	1	f	1	0.3811142228205426
19	11	n/a	n/a	n/a	f	1	0.01000000000000001	1	f	1	0.3608572848370386
19	12	n/a	n/a	n/a	f	1	1.040834085586084e-17	0	f	1	0.357341999619166
19	13	n/a	n/a	n/a	j	1	0.01000000000000001	0	j	1	0.4005172857650905
19	14	n/a	n/a	n/a	f	1	0.02000000000000001	1	f	1	0.3487556375002896
19	15	n/a	n/a	n/a	f	1	0.01000000000000001	0	f	1	0.3452611645934667
19	16	n/a	n/a	n/a	f	1	0.02000000000000001	0	f	1	0.4060813008782134
19	17	n/a	n/a	n/a	j	1	0.03000000000000001	1	j	1	0.4021580373027973
19	18	n/a	n/a	n/a	f	1	0.02000000000000001	1	f	1	0.4059532908959227
19	19	n/a	n/a	n/a	f	1	0.01000000000000001	2	f	1	0.3380176243226742
19	20	n/a	n/a	n/a	f	1	0.02000000000000001	0	f	1	0.3730091098059347
19	21	n/a	n/a	n/a	j	1	0.03000000000000001	1	j	1	0.4010532741049246
19	22	n/a	n/a	n/a	f	1	0.02000000000000001	1	f	1	0.4309796697907586
19	23	n/a	n/a	n/a	f	1	0.01000000000000001	2	f	1	0.421160819594661
19	24	n/a	n/a	n/a	f	1	0.02000000000000001	2	f	1	0.3128486953373795
19	25	n/a	n/a	n/a	j	1	0.03000000000000001	0	j	1	0.3841052088082506
19	26	n/a	n/a	n/a	f	1	0.04000000000000001	1	f	1	0.3657746927401604
19	27	n/a	n/a	n/a	f	1	0.03000000000000001	1	f	1	0.3938869959820295
19	28	n/a	n/a	n/a	f	1	0.02000000000000001	1	f	1	0.3823224773841503
19	29	n/a	n/a	n/a	j	1	0.01000000000000001	1	j	1	0.3727100397172762
19	30	n/a	n/a	n/a	f	1	1.040834085586084e-17	0	f	1	0.3619201383080508
19	31	n/a	n/a	n/a	f	1	0.01000000000000001	0	f	1	0.3664589331729076
19	32	n/a	n/a	n/a	f	1	0.02000000000000001	0	f	1	0.3006643689495831
19	33	n/a	n/a	n/a	j	1	0.03000000000000001	0	j	1	0.4088960949538887
19	34	n/a	n/a	n/a	f	1	0.04000000000000001	1	f	1	0.3689133606221731
19	35	n/a	n/a	n/a	f	1	0.03000000000000001	1	f	1	0.3406619284905901
19	36	n/a	n/a	n/a	f	1	0.02000000000000001	0	f	1	0.3936708900455415
19	37	n/a	n/a	n/a	j	1	0.03000000000000001	1	j	1	0.3411186589801218
19	38	n/a	n/a	n/a	f	1	0.02000000000000001	0	f	1	0.4250903553747776
19	39	n/a	n/a	n/a	f	1	0.03000000000000001	2	f	1	0.404998490395883
19	40	n/a	n/a	n/a	f	1	0.04000000000000001	1	f	1	0.361588281699369
19	41	n/a	n/a	n/a	j	1	0.03000000000000001	1	j	1	0.3295133710544178
19	42	n/a	n/a	n/a	f	1	0.02000000000000001	0	f	1	0.3915012776760705
19	43	n/a	n/a	n/a	f	1	0.03000000000000001	1	f	1	0.3884173490314424
19	44	n/a	n/a	n/a	f	1	0.02000000000000001	1	f	1	0.4014250447398808
19	45	n/a	n/a	n/a	j	1	0.01000000000000001	2	j	1	0.3594885188740591
19	46	n/a	n/a	n/a	f	1	0.02000000000000001	0	f	1	0.390937919719363
19	47	n/a	n/a	n/a	f	1	0.03000000000000001	1	f	1	0.4024499798870238
19	48	n/a	n/a	n/a	f	1	0.02000000000000001	1	f	1	0.315328211603628
19	49	n/a	n/a	n/a	j	1	0.01000000000000001	0	j	1	0.4314121667648578
19	50	n/a	n/a	n/a	f	1	0.02000000000000001	2	f	1	0.4044051969194697
19	51	n/a	n/a	n/a	f	1	0.03000000000000001	1	f	1	0.3992996228989796
19	52	n/a	n/a	n/a	f	1	0.02000000000000001	1	f	1	0.4043185264654312
19	53	n/a	n/a	n/a	j	1	0.01000000000000001	2	j	1	0.4432808872552414
19	54	n/a	n/a	n/a	f	1	0.02000000000000001	2	f	1	0.393182513436841
19	55	n/a	n/a	n/a	f	1	0.03000000000000001	1	f	1	0.3408780344270781
19	56	n/a	n/a	n/a	f	1	0.02000000000000001	0	f	1	0.3451029339939851
19	57	n/a	n/a	n/a	j	1	0.03000000000000001	0	j	1	0.4221717848322442
19	58	n/a	n/a	n/a	f	1	0.04000000000000001	1	f	1	0.3638052206970315
19	59	n/a	n/a	n/a	f	1	0.03000000000000001	1	f	1	0.3480656950632692
19	60	n/a	n/a	n/a	f	1	0.02000000000000001	0	f	1	0.3831227535883954
19	61	n/a	n/a	n/a	j	1	0.03000000000000001	1	j	1	0.3567564038494311
19	62	n/a	n/a	n/a	f	1	0.02000000000000001	0	f	1	0.4097756290084362
19	63	n/a	n/a	n/a	f	1	0.03000000000000001	1	f	1	0.4091238899982272
19	64	n/a	n/a	n/a	f	1	0.02000000000000001	2	f	1	0.365031151470248
19	65	n/a	n/a	n/a	j	1	0.03000000000000001	1	j	1	0.395161108686807
19	66	n/a	n/a	n/a	f	1	0.02000000000000001	1	f	1	0.3851164591469569
19	67	n/a	n/a	n/a	f	1	0.01000000000000001	1	f	1	0.3499872702777793
19	68	n/a	n/a	n/a	f	1	1.040834085586084e-17	0	f	1	0.3874910585454927
19	69	n/a	n/a	n/a	j	1	0.01000000000000001	1	j	1	0.4099398467133142
19	70	n/a	n/a	n/a	f	1	1.040834085586084e-17	2	f	1	0.3967953029186901
19	71	n/a	n/a	n/a	f	1	0.01000000000000001	2	f	1	0.4089756379053142
20	0	f	1	1.30606587695911	f	11	0.14	0	f	1	0.992317975651531
20	1	n/a	n/a	n/a	f	11	0.15	1	f	1	0.9604383586338372
20	2	n/a	n/a	n/a	j	11	0.14	1	j	1	0.9178480980535824
20	3	n/a	n/a	n/a	f	11	0.13	1	f	1	0.9081287478202285
20	4	n/a	n/a	n/a	f	11	0.12	1	f	1	0.8580637307240977
20	5	n/a	n/a	n/a	f	11	0.11	0	f	1	0.9150506950882118
20	6	n/a	n/a	n/a	f	11	0.12	1	f	1	0.906968960287486
20	7	n/a	n/a	n/a	f	11	0.11	1	f	1	0.9599930321528518
20	8	n/a	n/a	n/a	j	11	0.1	1	j	1	0.8758881939720595
20	9	n/a	n/a	n/a	f	11	0.09000000000000002	0	f	1	0.8161331919618533
20	10	n/a	n/a	n/a	f	11	0.1	0	f	1	0.8867790208460065
20	11	n/a	n/a	n/a	f	11	0.11	1	f	1	0.8927381848079676
20	12	n/a	n/a	n/a	f	11	0.1	1	f	1	0.856728606580873
20	13	n/a	n/a	n/a	f	11	0.09000000000000002	0	f	1	0.8884226233822119
20	14	n/a	n/a	n/a	j	11	0.1	0	j	1	0.9505570714954956
20	15	n/a	n/a	n/a	f	11	0.11	1	f	1	0.9465146360453218
20	16	n/a	n/a	n/a	f	11	0.1	1	f	1	0.958345153112532
20	17	n/a	n/a	n/a	f	11	0.09000000000000002	1	f	1	0.8653776907394786
20	18	n/a	n/a	n/a	f	11	0.08000000000000003	0	f	1	0.8554208520563407
20	19	n/a	n/a	n/a	f	11	0.09000000000000002	0	f	1	0.8553253434965882
20	20	n/a	n/a	n/a	j	11	0.1	0	j	1	0.8820705913749407
20	21	n/a	n/a	n/a	f	11	0.11	1	f	1	0.8791842371520033
20	22	n/a	n/a	n/a	f	11	0.1	0	f	1	0.8767081420901377
20	23	n/a	n/a	n/a	f	11	0.11	1	f	1	0.9941126812846051
20	24	n/a	n/a	n/a	f	11	0.1	1	f	1	0.8457981507817749
20	25	n/a	n/a	n/a	f	11	0.09000000000000002	0	f	1	0.9149395060176175
20	26	n/a	n/a	n/a	j	11	0.1	1	j	1	0.9020495566837781
20	27	n/a	n/a	n/a	f	11	0.09000000000000002	1	f	1	0.8370632514706813
20	28	n/a	n/a	n/a	f	11	0.08000000000000003	0	f	1	0.796932835244661
20	29	n/a	n/a	n/a	f	11	0.09000000000000002	0	f	1	0.89178880120744
20	30	n/a	n/a	n/a	f	11	0.1	1	f	1	0.9039873826059193
20	31	n/a	n/a	n/a	f	11	0.09000000000000002	1	f	1	0.8426629041041451
20	32	n/a	n/a	n/a	j	11	0.08000000000000003	0	j	1	0.8065931697419728
20	33	n/a	n/a	n/a	f	11	0.09000000000000002	0	f	1	0.8736165157406504
20	34	n/a	n/a	n/a	f	11	0.1	0	f	1	0.9175376239581965
20	35	n/a	n/a	n/a	f	11	0.11	1	f	1	0.8976755497224076
20	36	n/a	n/a	n/a	f	11	0.1	1	f	1	0.9324218490510248
20	37	n/a	n/a	n/a	f	11	0.09000000000000002	1	f	1	0.8149765405305516
20	38	n/a	n/a	n/a	j	11	0.08000000000000003	0	j	1	0.931911519728601
20	39	n/a	n/a	n/a	f	11	0.09000000000000002	1	f	1	0.8244130713883351
20	40	n/a	n/a	n/a	f	11	0.08000000000000003	0	f	1	0.9149417868193268
20	41	n/a	n/a	n/a	f	11	0.09000000000000002	1	f	1	0.8341771823506861
20	42	n/a	n/a	n/a	f	11	0.08000000000000003	0	f	1	0.9203022404017247
20	43	n/a	n/a	n/a	f	11	0.09000000000000002	1	f	1	1.004048992755997
20	44	n/a	n/a	n/a	j	11	0.08000000000000003	1	j	1	0.8470255070569692
20	45	n/a	n/a	n/a	f	11	0.07000000000000003	0	f	1	0.8269156807655236
20	46	n/a	n/a	n/a	f	11	0.08000000000000003	0	f	1	0.7708641300923773
20	47	n/a	n/a	n/a	f	11	0.09000000000000002	0	f	1	0.9120215056773304
20	48	n/a	n/a	n/a	f	11	0.1	1	f	1	0.8639952399662434
20	49	n/a	n/a	n/a	f	11	0.09000000000000002	0	f	1	0.9828201482578152
20	50	n/a	n/a	n/a	j	11	0.1	1	j	1	0.763702983773328
20	51	n/a	n/a	n/a	f	11	0.09000000000000002	0	f	1	0.8736638423688419
20	52	n/a	n/a	n/a	f	11	0.1	0	f	1	0.9025365077905008
20	53	n/a	n/a	n/a	f	11	0.11	1	f	1	0.7942072775258566
20	54	n/a	n/a	n/a	f	11	0.1	0	f	1	0.9366581526246591
20	55	n/a	n/a	n/a	f	11	0.11	1	f	1	0.8086724053518992
20	56	n/a	n/a	n/a	j	11	0.1	0	j	1	0.8373691639626486
20	57	n/a	n/a	n/a	f	11	0.11	0	f	1	0.8584121231433528
20	58	n/a	n/a	n/a	f	11	0.12	0	f	1	1.116338549620195
20	59	n/a	n/a	n/a	f	11	0.13	2	f	1	1.075286689614586
20	60	n/a	n/a	n/a	f	11	0.14	1	f	1	0.9462366633688362
20	61	n/a	n/a	n/a	f	11	0.13	1	f	1	0.8723349904303177
20	62	n/a	n/a	n/a	j	11	0.12	1	j	1	0.8882375933662843
20	63	n/a	n/a	n/a	f	11	0.11	1	f	1	0.7991010221121542
20	64	n/a	n/a	n/a	f	11	0.1	0	f	1	1.011820538560642
20	65	n/a	n/a	n/a	f	11	0.11	1	f	1	0.9125931315375055
20	66	n/a	n/a	n/a	f	11	0.1	1	f	1	0.8958241091550008
20	67	n/a	n/a	n/a	f	11	0.09000000000000002	0	f	1	0.9179299218048982
20	68	n/a	n/a	n/a	j	11	0.1	1	j	1	1.059846519168786
20	69	n/a	n/a	n/a	f	11	0.09000000000000002	1	f	1	0.8987768917177164
20	70	n/a	n/a	n/a	f	11	0.08000000000000003	0	f	1	0.9342878297284187
20	71	n/a	n/a	n/a	f	11	0.09000000000000002	1	f	1	1.042144363897023
21	0	f	1	0.9252986210558447	f	5	0.08000000000000002	2	f	1	0.6771317439379345
21	1	n/a	n/a	n/a	j	5	0.09000000000000001	2	j	1	0.6326569711709453
21	2	n/a	n/a	n/a	f	5	0.1	1	f	1	0.572058927926264
21	3	n/a	n/a	n/a	f	5	0.09000000000000001	1	f	1	0.5534244950667926
21	4	n/a	n/a	n/a	f	5	0.08000000000000002	1	f	1	0.5815122796921059
21	5	n/a	n/a	n/a	j	5	0.07000000000000002	1	j	1	0.5803955422870786
21	6	n/a	n/a	n/a	f	5	0.06000000000000002	1	f	1	0.5773538084667962
21	7	n/a	n/a	n/a	f	5	0.05000000000000002	1	f	1	0.5904493150319468
21	8	n/a	n/a	n/a	f	5	0.04000000000000001	1	f	1	0.6743417535763001
21	9	n/a	n/a	n/a	j	5	0.03000000000000001	2	j	1	0.5423312470666133
21	10	n/a	n/a	n/a	f	5	0.04000000000000001	0	f	1	0.5622315247237566
21	11	n/a	n/a	n/a	f	5	0.05000000000000002	1	f	1	0.560241240367759
21	12	n/a	n/a	n/a	f	5	0.04000000000000001	1	f	1	0.5227069463799126
21	13	n/a	n/a	n/a	j	5	0.03000000000000001	0	j	1	0.5272001252160408
21	14	n/a	n/a	n/a	f	5	0.04000000000000001	0	f	1	0.5301494865780114
21	15	n/a	n/a	n/a	f	5	0.05000000000000002	0	f	1	0.5950830482561287
21	16	n/a	n/a	n/a	f	5	0.06000000000000002	1	f	1	0.6501270548942557
21	17	n/a	n/a	n/a	j	5	0.05000000000000002	2	j	1	0.5420809291063051
21	18	n/a	n/a	n/a	f	5	0.06000000000000002	1	f	1	0.5390089746688318
21	19	n/a	n/a	n/a	f	5	0.05000000000000002	1	f	1	0.5118394977216667
21	20	n/a	n/a	n/a	f	5	0.04000000000000001	0	f	1	0.5739488570179674
21	21	n/a	n/a	n/a	j	5	0.05000000000000002	1	j	1	0.5299054408242228
21	22	n/a	n/a	n/a	f	5	0.04000000000000001	0	f	1	0.5744238339193544
21	23	n/a	n/a	n/a	f	5	0.05000000000000002	1	f	1	0.6098309954650176
21	24	n/a	n/a	n/a	f	5	0.04000000000000001	1	f	1	0.6011040789562685
21	25	n/a	n/a	n/a	j	5	0.03000000000000001	1	j	1	0.5007607898296556
