blockLoop_thisRepN	trialLoop_thisRepN	trigger	firstKey	readyKey_corr	readyKey_rt	targetKey	blockType	margin	outcome	trialResp_keys	trialResp_corr	trialResp_rt
0	0	47	f	1	8.932067369576544	f	7	0.1	0	f	1	0.675667654722929
0	1	67	n/a	n/a	n/a	f	7	0.11	0	j	0	0.7751362905837595
0	2	127	n/a	n/a	n/a	j	7	0.1	0	f	0	0.7105341637507081
0	3	127	n/a	n/a	n/a	f	7	0.11	2	f	1	1.046550354454666
0	4	107	n/a	n/a	n/a	f	7	0.12	2	f	1	0.6638304265215993
0	5	107	n/a	n/a	n/a	f	7	0.13	1	f	1	0.6429425091482699
0	6	87	n/a	n/a	n/a	f	7	0.12	1	f	1	0.8627776773646474
0	7	87	n/a	n/a	n/a	f	7	0.11	2	f	1	0.6588714495301247
0	8	107	n/a	n/a	n/a	j	7	0.12	2	f	0	0.7396995876915753
0	9	127	n/a	n/a	n/a	f	7	0.11	2	f	1	0.6905671092681587
0	10	107	n/a	n/a	n/a	f	7	0.12	1	f	1	0.6492765094153583
0	11	87	n/a	n/a	n/a	f	7	0.11	1	f	1	0.7414589212276042
0	12	87	n/a	n/a	n/a	f	7	0.1	1	j	0	0.7594750565476716
0	13	127	n/a	n/a	n/a	f	7	0.11	2	f	1	0.620661607477814
0	14	107	n/a	n/a	n/a	j	7	0.12	2	f	0	0.6925379852764308
0	15	127	n/a	n/a	n/a	f	7	0.11	1	f	1	0.6453866455703974
0	16	87	n/a	n/a	n/a	f	7	0.1	1	f	1	0.6804641266353428
0	17	87	n/a	n/a	n/a	f	7	0.09000000000000002	1	j	0	0.7254053936339915
0	18	127	n/a	n/a	n/a	f	7	0.1	2	f	1	0.6192096085287631
0	19	107	n/a	n/a	n/a	f	7	0.11	1	f	1	0.6643855101428926
0	20	87	n/a	n/a	n/a	j	7	0.1	1	f	0	0.727194947656244
0	21	127	n/a	n/a	n/a	f	7	0.09000000000000002	2	f	1	0.6707970569841564
0	22	107	n/a	n/a	n/a	f	7	0.1	1	f	1	0.7006603986956179
0	23	87	n/a	n/a	n/a	f	7	0.09000000000000002	1	j	0	0.7122464561834931
0	24	127	n/a	n/a	n/a	f	7	0.1	2	f	1	0.6790671511553228
0	25	107	n/a	n/a	n/a	f	7	0.11	1	f	1	0.6849196222610772
0	26	87	n/a	n/a	n/a	j	7	0.1	2	j	1	0.7128291940316558
0	27	107	n/a	n/a	n/a	f	7	0.11	2	f	1	0.7174705737270415
0	28	107	n/a	n/a	n/a	f	7	0.12	2	f	1	0.745554625056684
0	29	107	n/a	n/a	n/a	f	7	0.13	2	f	1	0.7108397874981165
0	30	107	n/a	n/a	n/a	f	7	0.14	1	f	1	0.7179196015931666
0	31	87	n/a	n/a	n/a	f	7	0.13	2	f	1	0.7393651683814824
0	32	107	n/a	n/a	n/a	j	7	0.14	2	j	1	0.7266278900206089
0	33	107	n/a	n/a	n/a	f	7	0.15	1	f	1	0.6762244491837919
0	34	87	n/a	n/a	n/a	f	7	0.14	1	f	1	0.6986273718066514
0	35	87	n/a	n/a	n/a	f	7	0.13	1	f	1	0.7105532651767135
0	36	87	n/a	n/a	n/a	f	7	0.12	2	f	1	0.7185108927078545
0	37	107	n/a	n/a	n/a	f	7	0.13	2	f	1	0.6665687831118703
0	38	107	n/a	n/a	n/a	j	7	0.14	1	j	1	0.6675001950934529
0	39	87	n/a	n/a	n/a	f	7	0.13	1	f	1	0.6725347233004868
0	40	87	n/a	n/a	n/a	f	7	0.12	1	f	1	0.6804646970704198
0	41	87	n/a	n/a	n/a	f	7	0.11	1	f	1	0.6850724346004426
0	42	87	n/a	n/a	n/a	f	7	0.1	1	f	1	0.6995031898841262
0	43	87	n/a	n/a	n/a	f	7	0.09000000000000002	2	f	1	0.7190856481902301
0	44	107	n/a	n/a	n/a	j	7	0.1	2	j	1	0.7339258026331663
0	45	107	n/a	n/a	n/a	f	7	0.11	2	f	1	0.6842228453606367
0	46	107	n/a	n/a	n/a	f	7	0.12	1	f	1	0.7031361809931695
0	47	87	n/a	n/a	n/a	f	7	0.11	2	f	1	0.7330280323512852
0	48	107	n/a	n/a	n/a	f	7	0.12	2	f	1	0.7131912675686181
0	49	107	n/a	n/a	n/a	f	7	0.13	1	f	1	0.7171019432134926
0	50	87	n/a	n/a	n/a	j	7	0.12	2	j	1	0.7552248304709792
0	51	107	n/a	n/a	n/a	f	7	0.13	2	f	1	0.6379752638749778
0	52	107	n/a	n/a	n/a	f	7	0.14	1	f	1	0.7209042818285525
0	53	87	n/a	n/a	n/a	f	7	0.13	2	f	1	0.7158751711249352
0	54	107	n/a	n/a	n/a	f	7	0.14	1	f	1	0.7184034110978246
0	55	87	n/a	n/a	n/a	f	7	0.13	2	f	1	0.6983388541266322
0	56	107	n/a	n/a	n/a	j	7	0.14	1	j	1	0.6942673833109438
0	57	87	n/a	n/a	n/a	f	7	0.13	1	f	1	0.7066579847596586
0	58	87	n/a	n/a	n/a	f	7	0.12	2	f	1	0.6888331491500139
0	59	107	n/a	n/a	n/a	f	7	0.13	1	f	1	0.7184245083481073
0	60	87	n/a	n/a	n/a	f	7	0.12	2	f	1	0.7145554567687213
0	61	107	n/a	n/a	n/a	f	7	0.13	1	f	1	0.7192732421681285
0	62	87	n/a	n/a	n/a	j	7	0.12	2	j	1	0.7013808386400342
0	63	107	n/a	n/a	n/a	f	7	0.13	1	f	1	0.6811435129493475
0	64	87	n/a	n/a	n/a	f	7	0.12	1	f	1	0.663454954046756
0	65	87	n/a	n/a	n/a	f	7	0.11	1	f	1	0.683987355325371
0	66	87	n/a	n/a	n/a	f	7	0.1	2	f	1	0.6884696506895125
0	67	107	n/a	n/a	n/a	f	7	0.11	1	f	1	0.7232777145691216
0	68	87	n/a	n/a	n/a	j	7	0.1	2	j	1	0.6803811634890735
0	69	107	n/a	n/a	n/a	f	7	0.11	1	f	1	0.6861002091318369
0	70	87	n/a	n/a	n/a	f	7	0.1	1	f	1	0.6594328051432967
0	71	87	n/a	n/a	n/a	f	7	0.09000000000000002	1	j	0	0.790205093100667
1	0	128	j	1	2.198363942094147	j	8	0.1	2	j	1	0.9054105142131448
1	1	108	n/a	n/a	n/a	j	8	0.11	2	j	1	0.6210211147554219
1	2	108	n/a	n/a	n/a	f	8	0.12	1	f	1	0.7385763055644929
1	3	88	n/a	n/a	n/a	j	8	0.11	2	j	1	0.536635251250118
1	4	108	n/a	n/a	n/a	j	8	0.12	1	j	1	0.5721820015460253
1	5	88	n/a	n/a	n/a	j	8	0.11	1	j	1	0.5767372814007103
1	6	88	n/a	n/a	n/a	j	8	0.1	1	j	1	0.5894788368605077
1	7	88	n/a	n/a	n/a	j	8	0.09000000000000001	1	j	1	0.5724243340082467
1	8	88	n/a	n/a	n/a	f	8	0.08000000000000002	1	f	1	0.5712257856503129
1	9	88	n/a	n/a	n/a	j	8	0.07000000000000002	1	j	1	0.5583519455976784
1	10	88	n/a	n/a	n/a	j	8	0.06000000000000002	1	j	1	0.5423274976201355
1	11	88	n/a	n/a	n/a	j	8	0.05000000000000002	1	j	1	0.5551217962056398
1	12	88	n/a	n/a	n/a	j	8	0.04000000000000001	1	j	1	0.5453098975121975
1	13	88	n/a	n/a	n/a	j	8	0.03000000000000001	0	j	1	0.5922930291853845
1	14	68	n/a	n/a	n/a	f	8	0.04000000000000001	1	f	1	0.5652290554717183
1	15	88	n/a	n/a	n/a	j	8	0.03000000000000001	1	j	1	0.5603054300881922
1	16	88	n/a	n/a	n/a	j	8	0.02000000000000001	0	j	1	0.5970612769015133
1	17	68	n/a	n/a	n/a	j	8	0.03000000000000001	1	j	1	0.6162537229247391
1	18	88	n/a	n/a	n/a	j	8	0.02000000000000001	2	j	1	0.6809197114780545
1	19	108	n/a	n/a	n/a	j	8	0.03000000000000001	2	j	1	0.5889762109145522
1	20	108	n/a	n/a	n/a	f	8	0.04000000000000001	1	f	1	0.5699405688792467
1	21	88	n/a	n/a	n/a	j	8	0.03000000000000001	1	j	1	0.6309670093469322
1	22	88	n/a	n/a	n/a	j	8	0.02000000000000001	2	j	1	0.6038762358948588
1	23	108	n/a	n/a	n/a	j	8	0.03000000000000001	1	j	1	0.577967475168407
1	24	88	n/a	n/a	n/a	j	8	0.02000000000000001	1	j	1	0.6199711025692523
1	25	88	n/a	n/a	n/a	j	8	0.01000000000000001	2	j	1	0.6127535868436098
1	26	108	n/a	n/a	n/a	f	8	0.02000000000000001	2	f	1	0.6038169357925653
1	27	108	n/a	n/a	n/a	j	8	0.03000000000000001	1	j	1	0.5849606194533408
1	28	88	n/a	n/a	n/a	j	8	0.02000000000000001	1	j	1	0.589597437530756
1	29	88	n/a	n/a	n/a	j	8	0.01000000000000001	1	j	1	0.6255883690901101
1	30	88	n/a	n/a	n/a	j	8	1.040834085586084e-17	2	j	1	0.6018645912408829
1	31	108	n/a	n/a	n/a	j	8	0.01000000000000001	2	j	1	0.586180264595896
1	32	108	n/a	n/a	n/a	f	8	0.02000000000000001	1	f	1	0.632728623226285
1	33	88	n/a	n/a	n/a	j	8	0.01000000000000001	2	j	1	0.6455619805492461
1	34	108	n/a	n/a	n/a	j	8	0.02000000000000001	2	j	1	0.5870751840993762
1	35	108	n/a	n/a	n/a	j	8	0.03000000000000001	1	j	1	0.6635558782145381
1	36	88	n/a	n/a	n/a	j	8	0.02000000000000001	2	j	1	0.6224468853324652
1	37	108	n/a	n/a	n/a	j	8	0.03000000000000001	2	j	1	0.6038996139541268
1	38	108	n/a	n/a	n/a	f	8	0.04000000000000001	1	f	1	0.5993155390024185
1	39	88	n/a	n/a	n/a	j	8	0.03000000000000001	1	j	1	0.6052977293729782
1	40	88	n/a	n/a	n/a	j	8	0.02000000000000001	1	j	1	0.6302870530635118
1	41	88	n/a	n/a	n/a	j	8	0.01000000000000001	2	j	1	0.5932455384172499
1	42	108	n/a	n/a	n/a	j	8	0.02000000000000001	1	j	1	0.6202370980754495
1	43	88	n/a	n/a	n/a	j	8	0.01000000000000001	2	j	1	0.612167997751385
1	44	108	n/a	n/a	n/a	f	8	0.02000000000000001	2	f	1	0.5772401923313737
1	45	108	n/a	n/a	n/a	j	8	0.03000000000000001	1	j	1	0.5970552903600037
1	46	88	n/a	n/a	n/a	j	8	0.02000000000000001	1	j	1	0.6001562899909914
1	47	88	n/a	n/a	n/a	j	8	0.01000000000000001	2	j	1	0.6119935181923211
1	48	108	n/a	n/a	n/a	j	8	0.02000000000000001	2	j	1	0.6019315891899168
1	49	108	n/a	n/a	n/a	j	8	0.03000000000000001	1	j	1	0.6069213571026921
1	50	88	n/a	n/a	n/a	f	8	0.02000000000000001	1	f	1	0.6118837557733059
1	51	88	n/a	n/a	n/a	j	8	0.01000000000000001	2	j	1	0.5999906486831605
1	52	108	n/a	n/a	n/a	j	8	0.02000000000000001	1	j	1	0.6055694269016385
1	53	88	n/a	n/a	n/a	j	8	0.01000000000000001	2	j	1	0.5787714486941695
1	54	108	n/a	n/a	n/a	j	8	0.02000000000000001	1	j	1	0.6163996923714876
1	55	88	n/a	n/a	n/a	j	8	0.01000000000000001	2	j	1	0.6125748306512833
1	56	108	n/a	n/a	n/a	f	8	0.02000000000000001	2	f	1	0.624330235645175
1	57	108	n/a	n/a	n/a	j	8	0.03000000000000001	2	j	1	0.6126110381446779
1	58	108	n/a	n/a	n/a	j	8	0.04000000000000001	1	j	1	0.5936446748673916
1	59	88	n/a	n/a	n/a	j	8	0.03000000000000001	1	j	1	0.5928592323325574
1	60	88	n/a	n/a	n/a	j	8	0.02000000000000001	1	j	1	0.62268693652004
1	61	88	n/a	n/a	n/a	j	8	0.01000000000000001	2	j	1	0.5791338067501783
1	62	108	n/a	n/a	n/a	f	8	0.02000000000000001	1	f	1	0.5836203782819211
1	63	88	n/a	n/a	n/a	j	8	0.01000000000000001	1	j	1	0.5865178192034364
1	64	88	n/a	n/a	n/a	j	8	1.040834085586084e-17	2	j	1	0.5934433960355818
1	65	108	n/a	n/a	n/a	j	8	0.01000000000000001	1	j	1	0.6044250475242734
1	66	88	n/a	n/a	n/a	j	8	1.040834085586084e-17	2	j	1	0.5954741421155632
1	67	108	n/a	n/a	n/a	j	8	0.01000000000000001	2	j	1	0.6013020947575569
1	68	108	n/a	n/a	n/a	f	8	0.02000000000000001	1	f	1	0.5812746002338827
1	69	88	n/a	n/a	n/a	j	8	0.01000000000000001	1	j	1	0.5621776622720063
1	70	88	n/a	n/a	n/a	j	8	1.040834085586084e-17	0	j	1	0.6030885130167007
1	71	68	n/a	n/a	n/a	j	8	0.01000000000000001	2	j	1	0.5991467614658177
2	0	110	j	1	1.176156310830265	j	10	0.1	2	f	0	0.9741992908529937
2	1	130	n/a	n/a	n/a	f	10	0.11	1	f	1	1.115055174566805
2	2	90	n/a	n/a	n/a	j	10	0.1	2	j	1	0.9833905333653092
2	3	110	n/a	n/a	n/a	j	10	0.11	1	j	1	0.9593713954091072
2	4	90	n/a	n/a	n/a	j	10	0.1	1	j	1	0.9742699945345521
2	5	90	n/a	n/a	n/a	f	10	0.09000000000000001	1	f	1	0.9642841871827841
2	6	90	n/a	n/a	n/a	j	10	0.08000000000000002	1	j	1	0.9857944715768099
2	7	90	n/a	n/a	n/a	j	10	0.07000000000000002	1	j	1	0.9647471844218671
2	8	90	n/a	n/a	n/a	j	10	0.06000000000000002	1	j	1	1.009015338029712
2	9	90	n/a	n/a	n/a	f	10	0.05000000000000002	1	f	1	0.9410581891424954
2	10	90	n/a	n/a	n/a	j	10	0.04000000000000001	0	j	1	0.9595900648273528
2	11	70	n/a	n/a	n/a	j	10	0.05000000000000002	1	j	1	0.9969004252925515
2	12	90	n/a	n/a	n/a	j	10	0.04000000000000001	1	j	1	1.033401965629309
2	13	90	n/a	n/a	n/a	f	10	0.03000000000000001	2	f	1	0.9583470420911908
2	14	110	n/a	n/a	n/a	j	10	0.04000000000000001	1	j	1	0.9967202441766858
2	15	90	n/a	n/a	n/a	j	10	0.03000000000000001	1	j	1	0.9485662188380957
2	16	90	n/a	n/a	n/a	j	10	0.02000000000000001	0	j	1	0.9965534619987011
2	17	70	n/a	n/a	n/a	f	10	0.03000000000000001	1	f	1	0.9274844350293279
2	18	90	n/a	n/a	n/a	j	10	0.02000000000000001	0	j	1	0.952555866446346
2	19	70	n/a	n/a	n/a	j	10	0.03000000000000001	0	j	1	0.9743920164182782
2	20	70	n/a	n/a	n/a	j	10	0.04000000000000001	1	j	1	1.079924665857106
2	21	90	n/a	n/a	n/a	f	10	0.03000000000000001	2	f	1	0.9732316718436778
2	22	110	n/a	n/a	n/a	j	10	0.04000000000000001	1	j	1	0.994287796318531
2	23	90	n/a	n/a	n/a	j	10	0.03000000000000001	1	j	1	0.9571995260193944
2	24	90	n/a	n/a	n/a	j	10	0.02000000000000001	0	j	1	1.032775322441012
2	25	70	n/a	n/a	n/a	f	10	0.03000000000000001	2	f	1	0.8930846299044788
2	26	110	n/a	n/a	n/a	j	10	0.04000000000000001	0	j	1	1.018934718333185
2	27	70	n/a	n/a	n/a	j	10	0.05000000000000002	1	j	1	0.9757670392282307
2	28	90	n/a	n/a	n/a	j	10	0.04000000000000001	1	j	1	1.036863043438643
2	29	90	n/a	n/a	n/a	f	10	0.03000000000000001	2	f	1	0.9449839745648205
2	30	110	n/a	n/a	n/a	j	10	0.04000000000000001	0	j	1	0.9738064273260534
2	31	70	n/a	n/a	n/a	j	10	0.05000000000000002	1	j	1	0.9209642666392028
2	32	90	n/a	n/a	n/a	j	10	0.04000000000000001	0	j	1	1.036503250710666
2	33	70	n/a	n/a	n/a	f	10	0.05000000000000002	2	f	1	0.9688052553683519
2	34	110	n/a	n/a	n/a	j	10	0.06000000000000002	1	j	1	1.023467475548387
2	35	90	n/a	n/a	n/a	j	10	0.05000000000000002	1	j	1	0.9738149801269174
2	36	90	n/a	n/a	n/a	j	10	0.04000000000000001	1	j	1	0.9729728032834828
2	37	90	n/a	n/a	n/a	f	10	0.03000000000000001	1	f	1	0.9456462548114359
2	38	90	n/a	n/a	n/a	j	10	0.02000000000000001	0	j	1	0.936193578876555
2	39	70	n/a	n/a	n/a	j	10	0.03000000000000001	0	j	1	0.9342842837795615
2	40	70	n/a	n/a	n/a	j	10	0.04000000000000001	0	j	1	1.016368274576962
2	41	70	n/a	n/a	n/a	f	10	0.05000000000000002	1	f	1	1.02120409021154
2	42	90	n/a	n/a	n/a	j	10	0.04000000000000001	1	j	1	1.026662557385862
2	43	90	n/a	n/a	n/a	j	10	0.03000000000000001	2	j	1	0.9540309580042958
2	44	110	n/a	n/a	n/a	j	10	0.04000000000000001	1	j	1	1.07212441181764
2	45	90	n/a	n/a	n/a	f	10	0.03000000000000001	2	f	1	1.041046842001379
2	46	110	n/a	n/a	n/a	j	10	0.04000000000000001	2	j	1	0.9649359188042581
2	47	110	n/a	n/a	n/a	j	10	0.05000000000000002	1	j	1	0.9781706919893622
2	48	90	n/a	n/a	n/a	j	10	0.04000000000000001	1	j	1	1.061654224060476
2	49	90	n/a	n/a	n/a	f	10	0.03000000000000001	2	f	1	0.9727672482840717
2	50	110	n/a	n/a	n/a	j	10	0.04000000000000001	1	j	1	0.9546077093109488
2	51	90	n/a	n/a	n/a	j	10	0.03000000000000001	1	j	1	0.9611481195315719
2	52	90	n/a	n/a	n/a	j	10	0.02000000000000001	0	j	1	1.014732102863491
2	53	70	n/a	n/a	n/a	f	10	0.03000000000000001	1	f	1	0.911324851680547
2	54	90	n/a	n/a	n/a	j	10	0.02000000000000001	0	j	1	0.93142333580181
2	55	70	n/a	n/a	n/a	j	10	0.03000000000000001	0	j	1	0.9366859411820769
2	56	70	n/a	n/a	n/a	j	10	0.04000000000000001	0	j	1	1.084323713090271
2	57	70	n/a	n/a	n/a	f	10	0.05000000000000002	2	f	1	0.953005179297179
2	58	110	n/a	n/a	n/a	j	10	0.06000000000000002	1	j	1	1.005051348824054
2	59	90	n/a	n/a	n/a	j	10	0.05000000000000002	1	j	1	0.9207501588389277
2	60	90	n/a	n/a	n/a	j	10	0.04000000000000001	0	j	1	1.020808945409954
2	61	70	n/a	n/a	n/a	f	10	0.05000000000000002	1	f	1	1.015344206243753
2	62	90	n/a	n/a	n/a	j	10	0.04000000000000001	1	j	1	0.9389065620489419
2	63	90	n/a	n/a	n/a	j	10	0.03000000000000001	0	j	1	0.9655254990793765
2	64	70	n/a	n/a	n/a	j	10	0.04000000000000001	1	j	1	1.000577321276069
2	65	90	n/a	n/a	n/a	f	10	0.03000000000000001	1	f	1	1.036518931388855
2	66	90	n/a	n/a	n/a	j	10	0.02000000000000001	2	j	1	0.9046185147017241
2	67	110	n/a	n/a	n/a	j	10	0.03000000000000001	0	j	1	0.9757773028686643
2	68	70	n/a	n/a	n/a	j	10	0.04000000000000001	1	j	1	1.05854353075847
2	69	90	n/a	n/a	n/a	f	10	0.03000000000000001	2	f	1	0.9055231274105608
2	70	110	n/a	n/a	n/a	j	10	0.04000000000000001	0	j	1	0.9404557789675891
2	71	70	n/a	n/a	n/a	j	10	0.05000000000000002	1	j	1	1.05408860463649
3	0	81	f	0	1.882902960758656	f	1	0.1	2	f	1	0.4143907851539552
3	1	101	n/a	n/a	n/a	j	1	0.11	2	f	0	0.4576037940569222
3	2	121	n/a	n/a	n/a	f	1	0.1	1	f	1	0.4529475895687938
3	3	81	n/a	n/a	n/a	f	1	0.09000000000000001	1	f	1	0.3855743193998933
3	4	81	n/a	n/a	n/a	f	1	0.08000000000000002	1	f	1	0.4211299079470336
3	5	81	n/a	n/a	n/a	j	1	0.07000000000000002	1	f	0	0.4521356332115829
3	6	121	n/a	n/a	n/a	f	1	0.06000000000000002	2	f	1	0.456714291125536
3	7	101	n/a	n/a	n/a	f	1	0.07000000000000002	2	f	1	0.452515097334981
3	8	101	n/a	n/a	n/a	f	1	0.08000000000000002	1	f	1	0.433291575871408
3	9	81	n/a	n/a	n/a	j	1	0.07000000000000002	1	j	1	0.4202466770075262
3	10	81	n/a	n/a	n/a	f	1	0.06000000000000002	1	f	1	0.4413133505731821
3	11	81	n/a	n/a	n/a	f	1	0.05000000000000002	2	f	1	0.4335823748260736
3	12	101	n/a	n/a	n/a	f	1	0.06000000000000002	1	f	1	0.420986789278686
3	13	81	n/a	n/a	n/a	j	1	0.05000000000000002	1	j	1	0.4252142077311873
3	14	81	n/a	n/a	n/a	f	1	0.04000000000000001	1	f	1	0.4311958276666701
3	15	81	n/a	n/a	n/a	f	1	0.03000000000000001	2	f	1	0.4552009962499142
3	16	101	n/a	n/a	n/a	f	1	0.04000000000000001	2	f	1	0.4268121761269867
3	17	101	n/a	n/a	n/a	j	1	0.05000000000000002	1	j	1	0.4408831391483545
3	18	81	n/a	n/a	n/a	f	1	0.04000000000000001	2	f	1	0.4199744099751115
3	19	101	n/a	n/a	n/a	f	1	0.05000000000000002	1	f	1	0.4721768125891685
3	20	81	n/a	n/a	n/a	f	1	0.04000000000000001	2	f	1	0.4271018346771598
3	21	101	n/a	n/a	n/a	j	1	0.05000000000000002	1	j	1	0.4000002280808985
3	22	81	n/a	n/a	n/a	f	1	0.04000000000000001	1	f	1	0.4469770877622068
3	23	81	n/a	n/a	n/a	f	1	0.03000000000000001	2	f	1	0.4198121894150972
3	24	101	n/a	n/a	n/a	f	1	0.04000000000000001	1	f	1	0.4414194067940116
3	25	81	n/a	n/a	n/a	j	1	0.03000000000000001	2	j	1	0.4128438485786319
3	26	101	n/a	n/a	n/a	f	1	0.04000000000000001	1	f	1	0.4598380993120372
3	27	81	n/a	n/a	n/a	f	1	0.03000000000000001	2	f	1	0.4329508855007589
3	28	101	n/a	n/a	n/a	f	1	0.04000000000000001	2	f	1	0.4048001212067902
3	29	101	n/a	n/a	n/a	j	1	0.05000000000000002	1	j	1	0.3930638176389039
3	30	81	n/a	n/a	n/a	f	1	0.04000000000000001	1	f	1	0.4278470785357058
3	31	81	n/a	n/a	n/a	f	1	0.03000000000000001	2	f	1	0.4688810911029577
3	32	101	n/a	n/a	n/a	f	1	0.04000000000000001	2	f	1	0.4731561206281185
3	33	101	n/a	n/a	n/a	j	1	0.05000000000000002	2	j	1	0.3857545009814203
3	34	101	n/a	n/a	n/a	f	1	0.06000000000000002	1	f	1	0.4296819628216326
3	35	81	n/a	n/a	n/a	f	1	0.05000000000000002	1	f	1	0.4533427339047194
3	36	81	n/a	n/a	n/a	f	1	0.04000000000000001	2	f	1	0.4665766516700387
3	37	101	n/a	n/a	n/a	j	1	0.05000000000000002	2	j	1	0.4387010070495307
3	38	101	n/a	n/a	n/a	f	1	0.06000000000000002	1	f	1	0.4512601001188159
3	39	81	n/a	n/a	n/a	f	1	0.05000000000000002	2	f	1	0.4490705551579595
3	40	101	n/a	n/a	n/a	f	1	0.06000000000000002	2	f	1	0.4726877068169415
3	41	101	n/a	n/a	n/a	j	1	0.07000000000000002	2	j	1	0.4386693611741066
3	42	101	n/a	n/a	n/a	f	1	0.08000000000000002	1	f	1	0.4354303739964962
3	43	81	n/a	n/a	n/a	f	1	0.07000000000000002	1	f	1	0.4464741768315434
3	44	81	n/a	n/a	n/a	f	1	0.06000000000000002	2	f	1	0.4433951294049621
3	45	101	n/a	n/a	n/a	j	1	0.07000000000000002	1	j	1	0.4073625733144581
3	46	81	n/a	n/a	n/a	f	1	0.06000000000000002	1	f	1	0.4042695560492575
3	47	81	n/a	n/a	n/a	f	1	0.05000000000000002	1	f	1	0.4713850985281169
3	48	81	n/a	n/a	n/a	f	1	0.04000000000000001	2	f	1	0.4354377863928676
3	49	101	n/a	n/a	n/a	j	1	0.05000000000000002	1	j	1	0.4683126076124609
3	50	81	n/a	n/a	n/a	f	1	0.04000000000000001	2	f	1	0.3987640477716923
3	51	101	n/a	n/a	n/a	f	1	0.05000000000000002	1	f	1	0.4502160749398172
3	52	81	n/a	n/a	n/a	f	1	0.04000000000000001	2	f	1	0.4701454965397716
3	53	101	n/a	n/a	n/a	j	1	0.05000000000000002	2	j	1	0.4503948306664824
3	54	101	n/a	n/a	n/a	f	1	0.06000000000000002	2	f	1	0.4398562200367451
3	55	101	n/a	n/a	n/a	f	1	0.07000000000000002	1	f	1	0.4430401832796633
3	56	81	n/a	n/a	n/a	f	1	0.06000000000000002	1	f	1	0.457287906203419
3	57	81	n/a	n/a	n/a	j	1	0.05000000000000002	2	j	1	0.4241165844723582
3	58	101	n/a	n/a	n/a	f	1	0.06000000000000002	1	f	1	0.4350660196505487
3	59	81	n/a	n/a	n/a	f	1	0.05000000000000002	1	f	1	0.4230813970789313
3	60	81	n/a	n/a	n/a	f	1	0.04000000000000001	1	f	1	0.4541104999370873
3	61	81	n/a	n/a	n/a	j	1	0.03000000000000001	2	j	1	0.4290014361031353
3	62	101	n/a	n/a	n/a	f	1	0.04000000000000001	2	f	1	0.4119754428975284
3	63	101	n/a	n/a	n/a	f	1	0.05000000000000002	1	f	1	0.4339051051065326
3	64	81	n/a	n/a	n/a	f	1	0.04000000000000001	2	f	1	0.446941735688597
3	65	101	n/a	n/a	n/a	j	1	0.05000000000000002	2	j	1	0.3798766555264592
3	66	101	n/a	n/a	n/a	f	1	0.06000000000000002	1	f	1	0.4018288403749466
3	67	81	n/a	n/a	n/a	f	1	0.05000000000000002	1	f	1	0.3887112415395677
3	68	81	n/a	n/a	n/a	f	1	0.04000000000000001	1	f	1	0.3948861579410732
3	69	81	n/a	n/a	n/a	j	1	0.03000000000000001	1	j	1	0.3919040430337191
3	70	81	n/a	n/a	n/a	f	1	0.02000000000000001	1	f	1	0.3887611338868737
3	71	81	n/a	n/a	n/a	f	1	0.01000000000000001	1	f	1	0.4267468890175223
4	0	86	j	1	1.458331076428294	j	6	0.1	0	j	1	0.5478700688108802
4	1	66	n/a	n/a	n/a	f	6	0.11	0	j	0	0.584113881457597
4	2	126	n/a	n/a	n/a	j	6	0.1	1	j	1	0.5726184849627316
4	3	86	n/a	n/a	n/a	j	6	0.09000000000000001	1	j	1	0.5845158682204783
4	4	86	n/a	n/a	n/a	j	6	0.08000000000000002	1	j	1	0.5414761980064213
4	5	86	n/a	n/a	n/a	f	6	0.07000000000000002	1	f	1	0.540674505289644
4	6	86	n/a	n/a	n/a	j	6	0.06000000000000002	1	j	1	0.5004570106975734
4	7	86	n/a	n/a	n/a	j	6	0.05000000000000002	0	j	1	0.5465751579031348
4	8	66	n/a	n/a	n/a	j	6	0.06000000000000002	1	j	1	0.5393924238160253
4	9	86	n/a	n/a	n/a	f	6	0.05000000000000002	1	f	1	0.5285433428362012
4	10	86	n/a	n/a	n/a	j	6	0.04000000000000001	0	j	1	0.526514592114836
4	11	66	n/a	n/a	n/a	j	6	0.05000000000000002	0	j	1	0.5384461870416999
4	12	66	n/a	n/a	n/a	j	6	0.06000000000000002	1	j	1	0.5289416229352355
4	13	86	n/a	n/a	n/a	f	6	0.05000000000000002	0	f	1	0.5260470332577825
4	14	66	n/a	n/a	n/a	j	6	0.06000000000000002	1	j	1	0.5472645228728652
4	15	86	n/a	n/a	n/a	j	6	0.05000000000000002	1	j	1	0.5433107973076403
4	16	86	n/a	n/a	n/a	j	6	0.04000000000000001	0	j	1	0.5301495790481567
4	17	66	n/a	n/a	n/a	f	6	0.05000000000000002	0	f	1	0.4981494355015457
4	18	66	n/a	n/a	n/a	j	6	0.06000000000000002	0	j	1	0.5181871931999922
4	19	66	n/a	n/a	n/a	j	6	0.07000000000000002	1	j	1	0.5231210826896131
4	20	86	n/a	n/a	n/a	j	6	0.06000000000000002	0	j	1	0.5260937889106572
4	21	66	n/a	n/a	n/a	f	6	0.07000000000000002	1	f	1	0.517070468980819
4	22	86	n/a	n/a	n/a	j	6	0.06000000000000002	0	j	1	0.5190148302353919
4	23	66	n/a	n/a	n/a	j	6	0.07000000000000002	1	j	1	0.5177213447168469
4	24	86	n/a	n/a	n/a	j	6	0.06000000000000002	0	j	1	0.5138597059994936
4	25	66	n/a	n/a	n/a	f	6	0.07000000000000002	0	f	1	0.5430413805879653
4	26	66	n/a	n/a	n/a	j	6	0.08000000000000002	1	j	1	0.5368579118512571
4	27	86	n/a	n/a	n/a	j	6	0.07000000000000002	1	j	1	0.529679168947041
4	28	86	n/a	n/a	n/a	j	6	0.06000000000000002	1	j	1	0.5417721285484731
4	29	86	n/a	n/a	n/a	f	6	0.05000000000000002	1	f	1	0.5217720032669604
4	30	86	n/a	n/a	n/a	j	6	0.04000000000000001	0	j	1	0.4880396099761128
4	31	66	n/a	n/a	n/a	j	6	0.05000000000000002	0	j	1	0.5502149919047952
4	32	66	n/a	n/a	n/a	j	6	0.06000000000000002	1	j	1	0.5334629765711725
4	33	86	n/a	n/a	n/a	f	6	0.05000000000000002	1	f	1	0.5538639482110739
4	34	86	n/a	n/a	n/a	j	6	0.04000000000000001	1	j	1	0.5165860885754228
4	35	86	n/a	n/a	n/a	j	6	0.03000000000000001	0	j	1	0.5215516230091453
4	36	66	n/a	n/a	n/a	j	6	0.04000000000000001	0	j	1	0.5373642439953983
4	37	66	n/a	n/a	n/a	f	6	0.05000000000000002	0	f	1	0.4945341199636459
4	38	66	n/a	n/a	n/a	j	6	0.06000000000000002	0	j	1	0.5414508245885372
4	39	66	n/a	n/a	n/a	j	6	0.07000000000000002	1	j	1	0.5294693373143673
4	40	86	n/a	n/a	n/a	j	6	0.06000000000000002	0	j	1	0.5833880244754255
4	41	66	n/a	n/a	n/a	f	6	0.07000000000000002	1	f	1	0.5013932688161731
4	42	86	n/a	n/a	n/a	j	6	0.06000000000000002	0	j	1	0.4730472140945494
4	43	66	n/a	n/a	n/a	j	6	0.07000000000000002	0	j	1	0.5092921671457589
4	44	66	n/a	n/a	n/a	j	6	0.08000000000000002	1	j	1	0.4575769947841763
4	45	86	n/a	n/a	n/a	f	6	0.07000000000000002	0	f	1	0.4335359041579068
4	46	66	n/a	n/a	n/a	j	6	0.08000000000000002	0	j	1	0.4404366775415838
4	47	66	n/a	n/a	n/a	j	6	0.09000000000000001	0	j	1	0.4841642864048481
4	48	66	n/a	n/a	n/a	j	6	0.1	0	j	1	0.5160033507272601
4	49	66	n/a	n/a	n/a	f	6	0.11	1	f	1	0.4401769540272653
4	50	86	n/a	n/a	n/a	j	6	0.1	0	j	1	0.4773034271784127
4	51	66	n/a	n/a	n/a	j	6	0.11	1	j	1	0.5310884034261107
4	52	86	n/a	n/a	n/a	j	6	0.1	1	j	1	0.4950726684182882
4	53	86	n/a	n/a	n/a	f	6	0.09000000000000001	0	f	1	0.4680622927844524
4	54	66	n/a	n/a	n/a	j	6	0.1	0	j	1	0.4669464230537415
4	55	66	n/a	n/a	n/a	j	6	0.11	0	j	1	0.4566872073337436
4	56	66	n/a	n/a	n/a	j	6	0.12	0	j	1	0.4759674626402557
4	57	66	n/a	n/a	n/a	f	6	0.13	1	f	1	0.4159918893128633
4	58	86	n/a	n/a	n/a	j	6	0.12	0	j	1	0.4615441197529435
4	59	66	n/a	n/a	n/a	j	6	0.13	1	j	1	0.4738489063456655
4	60	86	n/a	n/a	n/a	j	6	0.12	1	j	1	0.5126172532327473
4	61	86	n/a	n/a	n/a	f	6	0.11	1	f	1	0.4239001953974366
4	62	86	n/a	n/a	n/a	j	6	0.1	0	j	1	0.4363731895573437
4	63	66	n/a	n/a	n/a	j	6	0.11	0	j	1	0.4896954540163279
4	64	66	n/a	n/a	n/a	j	6	0.12	1	j	1	0.4632068052887917
4	65	86	n/a	n/a	n/a	f	6	0.11	0	f	1	0.4587336331605911
4	66	66	n/a	n/a	n/a	j	6	0.12	0	j	1	0.478685007430613
4	67	66	n/a	n/a	n/a	j	6	0.13	1	j	1	0.4752578558400273
4	68	86	n/a	n/a	n/a	j	6	0.12	1	j	1	0.4927867604419589
4	69	86	n/a	n/a	n/a	f	6	0.11	1	f	1	0.4158473452553153
4	70	86	n/a	n/a	n/a	j	6	0.1	0	j	1	0.4206050443463027
4	71	66	n/a	n/a	n/a	j	6	0.11	0	j	1	0.4485639380291104
5	0	65	f	0	1.670954145491123	f	5	0.1	0	f	1	0.4432733929716051
5	1	65	n/a	n/a	n/a	j	5	0.11	0	f	0	0.4944032607600093
5	2	125	n/a	n/a	n/a	f	5	0.12	0	j	0	0.5449543818831444
5	3	125	n/a	n/a	n/a	f	5	0.11	0	j	0	0.5773362703621387
5	4	125	n/a	n/a	n/a	f	5	0.1	1	f	1	0.518333163112402
5	5	85	n/a	n/a	n/a	j	5	0.09000000000000001	1	f	0	0.5628265431150794
5	6	125	n/a	n/a	n/a	f	5	0.08000000000000002	1	j	0	0.5912193539552391
5	7	125	n/a	n/a	n/a	f	5	0.07000000000000002	1	f	1	0.6512867282144725
5	8	85	n/a	n/a	n/a	f	5	0.06000000000000002	2	f	1	0.6171583351679146
5	9	105	n/a	n/a	n/a	j	5	0.07000000000000002	1	j	1	0.5671098404563963
5	10	85	n/a	n/a	n/a	f	5	0.06000000000000002	1	f	1	0.5558698908425868
5	11	85	n/a	n/a	n/a	f	5	0.05000000000000002	1	f	1	0.5791224027052522
5	12	85	n/a	n/a	n/a	f	5	0.04000000000000001	1	f	1	0.6012741555459797
5	13	85	n/a	n/a	n/a	j	5	0.03000000000000001	1	j	1	0.5510671464726329
5	14	85	n/a	n/a	n/a	f	5	0.02000000000000001	0	f	1	0.6029428285546601
5	15	65	n/a	n/a	n/a	f	5	0.03000000000000001	1	f	1	0.6019931701011956
5	16	85	n/a	n/a	n/a	f	5	0.02000000000000001	1	f	1	0.5681906430982053
5	17	85	n/a	n/a	n/a	j	5	0.01000000000000001	0	j	1	0.5966541585512459
5	18	65	n/a	n/a	n/a	f	5	0.02000000000000001	1	f	1	0.5611672783270478
5	19	85	n/a	n/a	n/a	f	5	0.01000000000000001	0	f	1	0.566795093473047
5	20	65	n/a	n/a	n/a	f	5	0.02000000000000001	1	f	1	0.5317358588799834
5	21	85	n/a	n/a	n/a	j	5	0.01000000000000001	0	j	1	0.5368972551077604
5	22	65	n/a	n/a	n/a	f	5	0.02000000000000001	0	f	1	0.551924433093518
5	23	65	n/a	n/a	n/a	f	5	0.03000000000000001	0	f	1	0.5886865523643792
5	24	65	n/a	n/a	n/a	f	5	0.04000000000000001	1	f	1	0.5776359071023762
5	25	85	n/a	n/a	n/a	j	5	0.03000000000000001	1	j	1	0.5698541840538383
5	26	85	n/a	n/a	n/a	f	5	0.02000000000000001	1	f	1	0.5543469022959471
5	27	85	n/a	n/a	n/a	f	5	0.01000000000000001	0	f	1	0.5583984162658453
5	28	65	n/a	n/a	n/a	f	5	0.02000000000000001	0	f	1	0.5940877152606845
5	29	65	n/a	n/a	n/a	j	5	0.03000000000000001	1	j	1	0.5851299669593573
5	30	85	n/a	n/a	n/a	f	5	0.02000000000000001	1	f	1	0.5674593695439398
5	31	85	n/a	n/a	n/a	f	5	0.01000000000000001	0	f	1	0.5905163050629199
5	32	65	n/a	n/a	n/a	f	5	0.02000000000000001	1	f	1	0.534388686530292
5	33	85	n/a	n/a	n/a	j	5	0.01000000000000001	0	j	1	0.6025625090114772
5	34	65	n/a	n/a	n/a	f	5	0.02000000000000001	1	f	1	0.5572209651581943
5	35	85	n/a	n/a	n/a	f	5	0.01000000000000001	0	f	1	0.5948925442062318
5	36	65	n/a	n/a	n/a	f	5	0.02000000000000001	1	f	1	0.5432406635954976
5	37	85	n/a	n/a	n/a	j	5	0.01000000000000001	0	j	1	0.564177617430687
5	38	65	n/a	n/a	n/a	f	5	0.02000000000000001	0	f	1	0.5789299625903368
5	39	65	n/a	n/a	n/a	f	5	0.03000000000000001	1	f	1	0.5598233309574425
5	40	85	n/a	n/a	n/a	f	5	0.02000000000000001	0	f	1	0.5490894285030663
5	41	65	n/a	n/a	n/a	j	5	0.03000000000000001	0	j	1	0.6092973556369543
5	42	65	n/a	n/a	n/a	f	5	0.04000000000000001	1	f	1	0.5490192947909236
5	43	85	n/a	n/a	n/a	f	5	0.03000000000000001	0	f	1	0.5789901181124151
5	44	65	n/a	n/a	n/a	f	5	0.04000000000000001	1	f	1	0.5459824413992465
5	45	85	n/a	n/a	n/a	j	5	0.03000000000000001	0	j	1	0.5610828897915781
5	46	65	n/a	n/a	n/a	f	5	0.04000000000000001	1	f	1	0.534579701256007
5	47	85	n/a	n/a	n/a	f	5	0.03000000000000001	0	f	1	0.5418496751226485
5	48	65	n/a	n/a	n/a	f	5	0.04000000000000001	0	f	1	0.496971984859556
5	49	65	n/a	n/a	n/a	j	5	0.05000000000000002	0	j	1	0.5268512917682528
5	50	65	n/a	n/a	n/a	f	5	0.06000000000000002	0	f	1	0.500785157084465
5	51	65	n/a	n/a	n/a	f	5	0.07000000000000002	0	f	1	0.5337398056872189
5	52	65	n/a	n/a	n/a	f	5	0.08000000000000002	1	f	1	0.5013408116064966
5	53	85	n/a	n/a	n/a	j	5	0.07000000000000002	0	j	1	0.5387965710833669
5	54	65	n/a	n/a	n/a	f	5	0.08000000000000002	1	f	1	0.5168024771846831
5	55	85	n/a	n/a	n/a	f	5	0.07000000000000002	1	f	1	0.5527831455692649
5	56	85	n/a	n/a	n/a	f	5	0.06000000000000002	1	f	1	0.5422941413708031
5	57	85	n/a	n/a	n/a	j	5	0.05000000000000002	1	j	1	0.5363116655498743
5	58	85	n/a	n/a	n/a	f	5	0.04000000000000001	0	f	1	0.5230546547099948
5	59	65	n/a	n/a	n/a	f	5	0.05000000000000002	0	f	1	0.5283819776959717
5	60	65	n/a	n/a	n/a	f	5	0.06000000000000002	1	f	1	0.5344499824568629
5	61	85	n/a	n/a	n/a	j	5	0.05000000000000002	0	j	1	0.5295303482562304
5	62	65	n/a	n/a	n/a	f	5	0.06000000000000002	1	f	1	0.5121382903307676
5	63	85	n/a	n/a	n/a	f	5	0.05000000000000002	0	f	1	0.5174941224977374
5	64	65	n/a	n/a	n/a	f	5	0.06000000000000002	0	f	1	0.5184015864506364
5	65	65	n/a	n/a	n/a	j	5	0.07000000000000002	1	j	1	0.5413356455974281
5	66	85	n/a	n/a	n/a	f	5	0.06000000000000002	1	f	1	0.5703017865307629
5	67	85	n/a	n/a	n/a	f	5	0.05000000000000002	1	f	1	0.4804283753037453
5	68	85	n/a	n/a	n/a	f	5	0.04000000000000001	0	f	1	0.4852063157595694
5	69	65	n/a	n/a	n/a	j	5	0.05000000000000002	0	j	1	0.5033715572208166
5	70	65	n/a	n/a	n/a	f	5	0.06000000000000002	0	f	1	0.4981306190602481
5	71	65	n/a	n/a	n/a	f	5	0.07000000000000002	0	f	1	0.5123338671401143
6	0	69	f	1	1.154206692241132	f	9	0.1	0	f	1	1.086046553682536
6	1	69	n/a	n/a	n/a	j	9	0.11	1	j	1	0.90609873784706
6	2	89	n/a	n/a	n/a	f	9	0.1	1	f	1	0.9273752430453897
6	3	89	n/a	n/a	n/a	f	9	0.09000000000000001	1	f	1	0.9974244334734976
6	4	89	n/a	n/a	n/a	f	9	0.08000000000000002	1	f	1	0.8968744245357811
6	5	89	n/a	n/a	n/a	j	9	0.07000000000000002	0	j	1	0.8923721723258495
6	6	69	n/a	n/a	n/a	f	9	0.08000000000000002	0	f	1	0.9292089869268239
6	7	69	n/a	n/a	n/a	f	9	0.09000000000000001	1	f	1	0.9421352851204574
6	8	89	n/a	n/a	n/a	f	9	0.08000000000000002	1	f	1	0.9171696249395609
6	9	89	n/a	n/a	n/a	j	9	0.07000000000000002	0	j	1	0.9090158510953188
6	10	69	n/a	n/a	n/a	f	9	0.08000000000000002	1	f	1	0.8599224304780364
6	11	89	n/a	n/a	n/a	f	9	0.07000000000000002	0	f	1	0.8494137548841536
6	12	69	n/a	n/a	n/a	f	9	0.08000000000000002	0	f	1	0.8653957233764231
6	13	69	n/a	n/a	n/a	j	9	0.09000000000000001	0	j	1	0.8651168984360993
6	14	69	n/a	n/a	n/a	f	9	0.1	0	f	1	0.8880107584409416
6	15	69	n/a	n/a	n/a	f	9	0.11	1	f	1	0.9412386552430689
6	16	89	n/a	n/a	n/a	f	9	0.1	1	f	1	0.9448280264623463
6	17	89	n/a	n/a	n/a	j	9	0.09000000000000001	1	j	1	0.8176861638203263
6	18	89	n/a	n/a	n/a	f	9	0.08000000000000002	0	f	1	0.8975791842676699
6	19	69	n/a	n/a	n/a	f	9	0.09000000000000001	1	f	1	0.8797543491236866
6	20	89	n/a	n/a	n/a	f	9	0.08000000000000002	0	f	1	0.9186755074188113
6	21	69	n/a	n/a	n/a	j	9	0.09000000000000001	1	j	1	0.884419106412679
6	22	89	n/a	n/a	n/a	f	9	0.08000000000000002	0	f	1	0.8423806969076395
6	23	69	n/a	n/a	n/a	f	9	0.09000000000000001	0	f	1	0.928416701965034
6	24	69	n/a	n/a	n/a	f	9	0.1	1	f	1	0.9204177353531122
6	25	89	n/a	n/a	n/a	j	9	0.09000000000000001	1	j	1	0.8842152617871761
6	26	89	n/a	n/a	n/a	f	9	0.08000000000000002	0	f	1	0.8462471826933324
6	27	69	n/a	n/a	n/a	f	9	0.09000000000000001	0	f	1	0.8531590742059052
6	28	69	n/a	n/a	n/a	f	9	0.1	0	f	1	0.8211098941974342
6	29	69	n/a	n/a	n/a	j	9	0.11	0	j	1	0.8369344887323678
6	30	69	n/a	n/a	n/a	f	9	0.12	0	f	1	0.8929141419939697
6	31	69	n/a	n/a	n/a	f	9	0.13	1	f	1	0.8491845368407667
6	32	89	n/a	n/a	n/a	f	9	0.12	0	f	1	0.90882055927068
6	33	69	n/a	n/a	n/a	j	9	0.13	1	j	1	0.8729647635482252
6	34	89	n/a	n/a	n/a	f	9	0.12	1	f	1	0.8755075442604721
6	35	89	n/a	n/a	n/a	f	9	0.11	1	f	1	0.9036223855800927
6	36	89	n/a	n/a	n/a	f	9	0.1	1	f	1	0.8996737920679152
6	37	89	n/a	n/a	n/a	j	9	0.09000000000000002	1	j	1	0.8876472595147789
6	38	89	n/a	n/a	n/a	f	9	0.08000000000000003	0	f	1	0.8292477033101022
6	39	69	n/a	n/a	n/a	f	9	0.09000000000000002	0	f	1	0.8694575005210936
6	40	69	n/a	n/a	n/a	f	9	0.1	0	f	1	0.9065434895455837
6	41	69	n/a	n/a	n/a	j	9	0.11	1	j	1	0.8371674129739404
6	42	89	n/a	n/a	n/a	f	9	0.1	0	f	1	0.8821674101054668
6	43	69	n/a	n/a	n/a	f	9	0.11	1	f	1	0.8816225896589458
6	44	89	n/a	n/a	n/a	f	9	0.1	0	f	1	0.8675162750296295
6	45	69	n/a	n/a	n/a	j	9	0.11	0	j	1	0.8907773396931589
6	46	69	n/a	n/a	n/a	f	9	0.12	1	f	1	0.8401677738875151
6	47	89	n/a	n/a	n/a	f	9	0.11	0	f	1	0.8871369361877441
6	48	69	n/a	n/a	n/a	f	9	0.12	1	f	1	0.8281669006682932
6	49	89	n/a	n/a	n/a	j	9	0.11	0	j	1	0.8356780661270022
6	50	69	n/a	n/a	n/a	f	9	0.12	0	f	1	0.7272739191539586
6	51	69	n/a	n/a	n/a	f	9	0.13	0	f	1	0.8575296117924154
6	52	69	n/a	n/a	n/a	f	9	0.14	1	f	1	0.9050393179059029
6	53	89	n/a	n/a	n/a	j	9	0.13	1	j	1	0.8447313220240176
6	54	89	n/a	n/a	n/a	f	9	0.12	0	f	1	0.8333508190698922
6	55	69	n/a	n/a	n/a	f	9	0.13	0	f	1	0.9328117580153048
6	56	69	n/a	n/a	n/a	f	9	0.14	1	f	1	0.8823792370967567
6	57	89	n/a	n/a	n/a	j	9	0.13	1	j	1	0.9066099170595407
6	58	89	n/a	n/a	n/a	f	9	0.12	1	f	1	0.8665170096792281
6	59	89	n/a	n/a	n/a	f	9	0.11	0	f	1	0.8526715585030615
6	60	69	n/a	n/a	n/a	f	9	0.12	0	f	1	0.8241139613091946
6	61	69	n/a	n/a	n/a	j	9	0.13	0	j	1	0.8284571291878819
6	62	69	n/a	n/a	n/a	f	9	0.14	0	f	1	0.9282906898297369
6	63	69	n/a	n/a	n/a	f	9	0.15	1	f	1	1.05934636387974
6	64	89	n/a	n/a	n/a	f	9	0.14	1	f	1	0.9204890099354088
6	65	89	n/a	n/a	n/a	j	9	0.13	1	j	1	0.8613556134514511
6	66	89	n/a	n/a	n/a	f	9	0.12	0	f	1	0.900520530063659
6	67	69	n/a	n/a	n/a	f	9	0.13	1	f	1	0.8933052951470017
6	68	89	n/a	n/a	n/a	f	9	0.12	1	f	1	0.9460499524138868
6	69	89	n/a	n/a	n/a	j	9	0.11	1	j	1	0.9041241565719247
6	70	89	n/a	n/a	n/a	f	9	0.1	1	f	1	1.022977108601481
6	71	89	n/a	n/a	n/a	f	9	0.09000000000000002	1	f	1	0.9315715860575438
7	0	83	f	1	1.167720289900899	f	3	0.1	2	f	1	0.3871822664514184
7	1	103	n/a	n/a	n/a	f	3	0.11	1	f	1	0.4403722453862429
7	2	83	n/a	n/a	n/a	j	3	0.1	1	j	1	0.4511109944432974
7	3	83	n/a	n/a	n/a	f	3	0.09000000000000001	1	f	1	0.4231646452099085
7	4	83	n/a	n/a	n/a	f	3	0.08000000000000002	1	f	1	0.4220621753484011
7	5	83	n/a	n/a	n/a	f	3	0.07000000000000002	1	f	1	0.4211182189173996
7	6	83	n/a	n/a	n/a	f	3	0.06000000000000002	1	f	1	0.3949662703089416
7	7	83	n/a	n/a	n/a	f	3	0.05000000000000002	1	f	1	0.4189087171107531
7	8	83	n/a	n/a	n/a	j	3	0.04000000000000001	1	j	1	0.4170775390230119
7	9	83	n/a	n/a	n/a	f	3	0.03000000000000001	2	f	1	0.4159830515272915
7	10	103	n/a	n/a	n/a	f	3	0.04000000000000001	1	f	1	0.3963241870515049
7	11	83	n/a	n/a	n/a	f	3	0.03000000000000001	1	f	1	0.3889213581569493
7	12	83	n/a	n/a	n/a	f	3	0.02000000000000001	1	f	1	0.4089588313363492
7	13	83	n/a	n/a	n/a	f	3	0.01000000000000001	2	f	1	0.3931447854265571
7	14	103	n/a	n/a	n/a	j	3	0.02000000000000001	1	j	1	0.3727931356988847
7	15	83	n/a	n/a	n/a	f	3	0.01000000000000001	0	f	1	0.4187966738827527
7	16	63	n/a	n/a	n/a	f	3	0.02000000000000001	2	f	1	0.3835153491236269
7	17	103	n/a	n/a	n/a	f	3	0.03000000000000001	1	f	1	0.3551265290006995
7	18	83	n/a	n/a	n/a	f	3	0.02000000000000001	0	f	1	0.4227518243715167
7	19	63	n/a	n/a	n/a	f	3	0.03000000000000001	2	f	1	0.3873929530382156
7	20	103	n/a	n/a	n/a	j	3	0.04000000000000001	1	j	1	0.3706822767853737
7	21	83	n/a	n/a	n/a	f	3	0.03000000000000001	1	f	1	0.4016344039700925
7	22	83	n/a	n/a	n/a	f	3	0.02000000000000001	1	f	1	0.3912072661332786
7	23	83	n/a	n/a	n/a	f	3	0.01000000000000001	1	f	1	0.4064354379661381
7	24	83	n/a	n/a	n/a	f	3	1.040834085586084e-17	2	f	1	0.3935889666900039
7	25	103	n/a	n/a	n/a	f	3	0.01000000000000001	1	f	1	0.398529983125627
7	26	83	n/a	n/a	n/a	j	3	1.040834085586084e-17	2	j	1	0.3556248783133924
7	27	103	n/a	n/a	n/a	f	3	0.01000000000000001	0	f	1	0.3945206636562943
7	28	63	n/a	n/a	n/a	f	3	0.02000000000000001	1	f	1	0.3894339627586305
7	29	83	n/a	n/a	n/a	f	3	0.01000000000000001	1	f	1	0.3850064058788121
7	30	83	n/a	n/a	n/a	f	3	1.040834085586084e-17	2	f	1	0.3697066749446094
7	31	103	n/a	n/a	n/a	f	3	0.01000000000000001	0	f	1	0.3913324237801135
7	32	63	n/a	n/a	n/a	j	3	0.02000000000000001	1	j	1	0.35849295463413
7	33	83	n/a	n/a	n/a	f	3	0.01000000000000001	0	f	1	0.3813175358809531
7	34	63	n/a	n/a	n/a	f	3	0.02000000000000001	1	f	1	0.3423578892834485
7	35	83	n/a	n/a	n/a	f	3	0.01000000000000001	0	f	1	0.3727897140197456
7	36	63	n/a	n/a	n/a	f	3	0.02000000000000001	1	f	1	0.3623143946751952
7	37	83	n/a	n/a	n/a	f	3	0.01000000000000001	0	f	1	0.3530373377725482
7	38	63	n/a	n/a	n/a	j	3	0.02000000000000001	0	j	1	0.3734534201212227
7	39	63	n/a	n/a	n/a	f	3	0.03000000000000001	1	f	1	0.3951832288876176
7	40	83	n/a	n/a	n/a	f	3	0.02000000000000001	1	f	1	0.3617687188088894
7	41	83	n/a	n/a	n/a	f	3	0.01000000000000001	0	f	1	0.3992030969820917
7	42	63	n/a	n/a	n/a	f	3	0.02000000000000001	1	f	1	0.3637418756261468
7	43	83	n/a	n/a	n/a	f	3	0.01000000000000001	0	f	1	0.3940733461640775
7	44	63	n/a	n/a	n/a	j	3	0.02000000000000001	1	j	1	0.3941269447095692
7	45	83	n/a	n/a	n/a	f	3	0.01000000000000001	2	f	1	0.3930404395796359
7	46	103	n/a	n/a	n/a	f	3	0.02000000000000001	1	f	1	0.33509675366804
7	47	83	n/a	n/a	n/a	f	3	0.01000000000000001	0	f	1	0.3981741815805435
7	48	63	n/a	n/a	n/a	f	3	0.02000000000000001	1	f	1	0.3708909680135548
7	49	83	n/a	n/a	n/a	f	3	0.01000000000000001	0	f	1	0.4216045942157507
7	50	63	n/a	n/a	n/a	j	3	0.02000000000000001	2	j	1	0.4400945608504117
7	51	103	n/a	n/a	n/a	f	3	0.03000000000000001	2	f	1	0.4139183792285621
7	52	103	n/a	n/a	n/a	f	3	0.04000000000000001	1	f	1	0.3469610651955009
7	53	83	n/a	n/a	n/a	f	3	0.03000000000000001	0	f	1	0.4071105471812189
7	54	63	n/a	n/a	n/a	f	3	0.04000000000000001	1	f	1	0.376095128711313
7	55	83	n/a	n/a	n/a	f	3	0.03000000000000001	1	f	1	0.4383543287403882
7	56	83	n/a	n/a	n/a	j	3	0.02000000000000001	2	j	1	0.379776016343385
7	57	103	n/a	n/a	n/a	f	3	0.03000000000000001	1	f	1	0.3286943300627172
7	58	83	n/a	n/a	n/a	f	3	0.02000000000000001	0	f	1	0.3735292558558285
7	59	63	n/a	n/a	n/a	f	3	0.03000000000000001	1	f	1	0.3717502504587173
7	60	83	n/a	n/a	n/a	f	3	0.02000000000000001	1	f	1	0.3787402589805424
7	61	83	n/a	n/a	n/a	f	3	0.01000000000000001	1	f	1	0.3929600422270596
7	62	83	n/a	n/a	n/a	j	3	1.040834085586084e-17	2	j	1	0.3967686537653208
7	63	103	n/a	n/a	n/a	f	3	0.01000000000000001	2	f	1	4.922504645306617
7	64	103	n/a	n/a	n/a	f	3	0.02000000000000001	2	f	1	0.3113649929873645
7	65	103	n/a	n/a	n/a	f	3	0.03000000000000001	0	f	1	0.3814158942550421
7	66	63	n/a	n/a	n/a	f	3	0.04000000000000001	0	j	0	0.2749253190122545
7	67	123	n/a	n/a	n/a	f	3	0.03000000000000001	0	f	1	0.4143699728883803
7	68	63	n/a	n/a	n/a	j	3	0.04000000000000001	0	f	0	0.4188927514478564
7	69	123	n/a	n/a	n/a	f	3	0.03000000000000001	2	f	1	0.3822706150822341
7	70	103	n/a	n/a	n/a	f	3	0.04000000000000001	1	f	1	0.324419585056603
7	71	83	n/a	n/a	n/a	f	3	0.03000000000000001	0	f	1	0.4087450089864433
8	0	72	j	1	1.142162483651191	j	12	0.1	0	j	1	0.7735329051502049
8	1	72	n/a	n/a	n/a	j	12	0.11	0	j	1	0.9144466640427709
8	2	72	n/a	n/a	n/a	f	12	0.12	1	f	1	0.9269216535612941
8	3	92	n/a	n/a	n/a	j	12	0.11	1	j	1	0.8584638745523989
8	4	92	n/a	n/a	n/a	j	12	0.1	0	j	1	0.8955196435563266
8	5	72	n/a	n/a	n/a	j	12	0.11	1	j	1	0.8832020270638168
8	6	92	n/a	n/a	n/a	j	12	0.1	1	j	1	0.8894359581172466
8	7	92	n/a	n/a	n/a	j	12	0.09000000000000001	0	j	1	0.8871449190191925
8	8	72	n/a	n/a	n/a	f	12	0.1	1	f	1	0.9310735212638974
8	9	92	n/a	n/a	n/a	j	12	0.09000000000000001	1	j	1	0.8491671457886696
8	10	92	n/a	n/a	n/a	j	12	0.08000000000000002	0	j	1	0.851969079580158
8	11	72	n/a	n/a	n/a	j	12	0.09000000000000001	0	j	1	0.8818640667013824
8	12	72	n/a	n/a	n/a	j	12	0.1	0	j	1	0.9085645419545472
8	13	72	n/a	n/a	n/a	j	12	0.11	1	j	1	0.832960806787014
8	14	92	n/a	n/a	n/a	f	12	0.1	0	f	1	0.8847760474309325
8	15	72	n/a	n/a	n/a	j	12	0.11	1	j	1	0.8399146078154445
8	16	92	n/a	n/a	n/a	j	12	0.1	0	j	1	0.8746536783874035
8	17	72	n/a	n/a	n/a	j	12	0.11	1	j	1	0.9838349996134639
8	18	92	n/a	n/a	n/a	j	12	0.1	1	j	1	0.9398151659406722
8	19	92	n/a	n/a	n/a	j	12	0.09000000000000001	1	j	1	0.8883973499760032
8	20	92	n/a	n/a	n/a	f	12	0.08000000000000002	0	f	1	0.9297626451589167
8	21	72	n/a	n/a	n/a	j	12	0.09000000000000001	1	j	1	0.8874169015325606
8	22	92	n/a	n/a	n/a	j	12	0.08000000000000002	0	j	1	0.939403485506773
8	23	72	n/a	n/a	n/a	j	12	0.09000000000000001	1	j	1	0.9903312199749053
8	24	92	n/a	n/a	n/a	j	12	0.08000000000000002	1	j	1	0.9373676078394055
8	25	92	n/a	n/a	n/a	j	12	0.07000000000000002	1	j	1	0.9012834499590099
8	26	92	n/a	n/a	n/a	f	12	0.06000000000000002	0	f	1	0.9416529010049999
8	27	72	n/a	n/a	n/a	j	12	0.07000000000000002	1	j	1	0.962023367639631
8	28	92	n/a	n/a	n/a	j	12	0.06000000000000002	1	j	1	0.9618486030958593
8	29	92	n/a	n/a	n/a	j	12	0.05000000000000002	1	j	1	0.9430199409835041
8	30	92	n/a	n/a	n/a	j	12	0.04000000000000001	0	j	1	0.9948072428815067
8	31	72	n/a	n/a	n/a	j	12	0.05000000000000002	1	j	1	0.9367620623670518
8	32	92	n/a	n/a	n/a	f	12	0.04000000000000001	0	f	1	0.9190723630599678
8	33	72	n/a	n/a	n/a	j	12	0.05000000000000002	0	j	1	0.9337696838192642
8	34	72	n/a	n/a	n/a	j	12	0.06000000000000002	1	j	1	1.001650996506214
8	35	92	n/a	n/a	n/a	j	12	0.05000000000000002	1	j	1	0.9447978064417839
8	36	92	n/a	n/a	n/a	j	12	0.04000000000000001	0	j	1	0.9806479001417756
8	37	72	n/a	n/a	n/a	j	12	0.05000000000000002	1	j	1	1.032749093603343
8	38	92	n/a	n/a	n/a	f	12	0.04000000000000001	2	f	1	1.012493520975113
8	39	112	n/a	n/a	n/a	j	12	0.05000000000000002	1	j	1	0.9285957431420684
8	40	92	n/a	n/a	n/a	j	12	0.04000000000000001	0	j	1	0.9653339139185846
8	41	72	n/a	n/a	n/a	j	12	0.05000000000000002	1	j	1	0.9132834682241082
8	42	92	n/a	n/a	n/a	j	12	0.04000000000000001	0	j	1	0.8969744932837784
8	43	72	n/a	n/a	n/a	j	12	0.05000000000000002	0	j	1	0.9261002894490957
8	44	72	n/a	n/a	n/a	f	12	0.06000000000000002	1	f	1	0.9536657491698861
8	45	92	n/a	n/a	n/a	j	12	0.05000000000000002	1	j	1	0.9359241616912186
8	46	92	n/a	n/a	n/a	j	12	0.04000000000000001	0	j	1	0.9560751034878194
8	47	72	n/a	n/a	n/a	j	12	0.05000000000000002	1	j	1	0.9531408855691552
8	48	92	n/a	n/a	n/a	j	12	0.04000000000000001	1	j	1	0.9489371296949685
8	49	92	n/a	n/a	n/a	j	12	0.03000000000000001	0	j	1	1.02588310232386
8	50	72	n/a	n/a	n/a	f	12	0.04000000000000001	2	f	1	0.976985543500632
8	51	112	n/a	n/a	n/a	j	12	0.05000000000000002	1	j	1	0.8998209023848176
8	52	92	n/a	n/a	n/a	j	12	0.04000000000000001	0	j	1	0.9515089900232852
8	53	72	n/a	n/a	n/a	j	12	0.05000000000000002	1	j	1	0.9506234787404537
8	54	92	n/a	n/a	n/a	j	12	0.04000000000000001	1	j	1	1.018286407459527
8	55	92	n/a	n/a	n/a	j	12	0.03000000000000001	2	j	1	0.9555134624242783
8	56	112	n/a	n/a	n/a	f	12	0.04000000000000001	1	f	1	0.9520375598222017
8	57	92	n/a	n/a	n/a	j	12	0.03000000000000001	0	j	1	0.9286151300184429
8	58	72	n/a	n/a	n/a	j	12	0.04000000000000001	0	j	1	0.9805880296044052
8	59	72	n/a	n/a	n/a	j	12	0.05000000000000002	1	j	1	0.9044756810180843
8	60	92	n/a	n/a	n/a	j	12	0.04000000000000001	1	f	0	1.141444609500468
8	61	132	n/a	n/a	n/a	j	12	0.05000000000000002	2	j	1	1.003276619594544
8	62	112	n/a	n/a	n/a	f	12	0.06000000000000002	1	f	1	0.9662057408131659
8	63	92	n/a	n/a	n/a	j	12	0.05000000000000002	1	j	1	0.8910362082533538
8	64	92	n/a	n/a	n/a	j	12	0.04000000000000001	0	j	1	0.934862460475415
8	65	72	n/a	n/a	n/a	j	12	0.05000000000000002	0	j	1	0.9599949023686349
8	66	72	n/a	n/a	n/a	j	12	0.06000000000000002	1	j	1	0.9449665839783847
8	67	92	n/a	n/a	n/a	j	12	0.05000000000000002	1	j	1	0.9795360215939581
8	68	92	n/a	n/a	n/a	f	12	0.04000000000000001	1	f	1	0.9199384874664247
8	69	92	n/a	n/a	n/a	j	12	0.03000000000000001	0	j	1	0.8277914277277887
8	70	72	n/a	n/a	n/a	j	12	0.04000000000000001	0	j	1	0.9278459381312132
8	71	72	n/a	n/a	n/a	j	12	0.05000000000000002	0	j	1	0.8648135550320148
9	0	62	j	1	0.1044889092445374	j	2	0.1	2	j	1	0.5060779829509556
9	1	102	n/a	n/a	n/a	f	2	0.11	2	f	1	0.4316323115490377
9	2	102	n/a	n/a	n/a	j	2	0.12	1	j	1	0.4330358440056443
9	3	82	n/a	n/a	n/a	j	2	0.11	1	j	1	0.4320528297685087
9	4	82	n/a	n/a	n/a	j	2	0.1	1	j	1	0.3979882984422147
9	5	82	n/a	n/a	n/a	f	2	0.09000000000000001	1	f	1	0.4137381976470351
9	6	82	n/a	n/a	n/a	j	2	0.08000000000000002	1	j	1	0.3932445691898465
9	7	82	n/a	n/a	n/a	j	2	0.07000000000000002	1	j	1	0.4160158378072083
9	8	82	n/a	n/a	n/a	j	2	0.06000000000000002	1	j	1	0.3896934012882411
9	9	82	n/a	n/a	n/a	f	2	0.05000000000000002	1	f	1	0.3878978602588177
9	10	82	n/a	n/a	n/a	j	2	0.04000000000000001	1	j	1	0.4038034221157432
9	11	82	n/a	n/a	n/a	j	2	0.03000000000000001	1	j	1	0.4181934087537229
9	12	82	n/a	n/a	n/a	j	2	0.02000000000000001	2	j	1	0.4087877729907632
9	13	102	n/a	n/a	n/a	f	2	0.03000000000000001	1	f	1	0.4121496370062232
9	14	82	n/a	n/a	n/a	j	2	0.02000000000000001	2	j	1	0.3618174707517028
9	15	102	n/a	n/a	n/a	j	2	0.03000000000000001	1	j	1	0.4166299365460873
9	16	82	n/a	n/a	n/a	j	2	0.02000000000000001	2	j	1	0.3884891509078443
9	17	102	n/a	n/a	n/a	f	2	0.03000000000000001	1	f	1	0.3656970704905689
9	18	82	n/a	n/a	n/a	j	2	0.02000000000000001	0	j	1	0.364433235488832
9	19	62	n/a	n/a	n/a	j	2	0.03000000000000001	1	j	1	0.4014066117815673
9	20	82	n/a	n/a	n/a	j	2	0.02000000000000001	1	j	1	0.3974908040836453
9	21	82	n/a	n/a	n/a	f	2	0.01000000000000001	2	f	1	0.3963395827449858
9	22	102	n/a	n/a	n/a	j	2	0.02000000000000001	1	j	1	0.40842598490417
9	23	82	n/a	n/a	n/a	j	2	0.01000000000000001	2	j	1	0.4383614561520517
9	24	102	n/a	n/a	n/a	j	2	0.02000000000000001	2	j	1	0.3452978092245758
9	25	102	n/a	n/a	n/a	f	2	0.03000000000000001	0	f	1	0.3973411279730499
9	26	62	n/a	n/a	n/a	j	2	0.04000000000000001	1	j	1	0.3615329437889159
9	27	82	n/a	n/a	n/a	j	2	0.03000000000000001	1	j	1	0.3683644384145737
9	28	82	n/a	n/a	n/a	j	2	0.02000000000000001	1	j	1	0.3642533393576741
9	29	82	n/a	n/a	n/a	f	2	0.01000000000000001	0	f	1	0.3553546066395938
9	30	62	n/a	n/a	n/a	j	2	0.02000000000000001	0	j	1	0.3852544403634965
9	31	62	n/a	n/a	n/a	j	2	0.03000000000000001	1	j	1	0.4163151895627379
9	32	82	n/a	n/a	n/a	j	2	0.02000000000000001	2	j	1	0.3731649019755423
9	33	102	n/a	n/a	n/a	f	2	0.03000000000000001	1	f	1	0.3721682028844953
9	34	82	n/a	n/a	n/a	j	2	0.02000000000000001	1	j	1	0.3787251487374306
9	35	82	n/a	n/a	n/a	j	2	0.01000000000000001	1	j	1	0.385230207350105
9	36	82	n/a	n/a	n/a	j	2	1.040834085586084e-17	0	j	1	0.4130673641338944
9	37	62	n/a	n/a	n/a	f	2	0.01000000000000001	2	f	1	0.3362422729842365
9	38	102	n/a	n/a	n/a	j	2	0.02000000000000001	0	j	1	0.3588664317503572
9	39	62	n/a	n/a	n/a	j	2	0.03000000000000001	1	j	1	0.3789603537879884
9	40	82	n/a	n/a	n/a	j	2	0.02000000000000001	1	j	1	0.3686463991180062
9	41	82	n/a	n/a	n/a	f	2	0.01000000000000001	0	f	1	0.3658795328810811
9	42	62	n/a	n/a	n/a	j	2	0.02000000000000001	1	j	1	0.3450985266827047
9	43	82	n/a	n/a	n/a	j	2	0.01000000000000001	0	j	1	0.3846922293305397
9	44	62	n/a	n/a	n/a	j	2	0.02000000000000001	1	j	1	0.3879816783592105
9	45	82	n/a	n/a	n/a	f	2	0.01000000000000001	1	f	1	0.3569169384427369
9	46	82	n/a	n/a	n/a	j	2	1.040834085586084e-17	0	j	1	0.3964370852336287
9	47	62	n/a	n/a	n/a	j	2	0.01000000000000001	2	j	1	0.3626265763305128
9	48	102	n/a	n/a	n/a	j	2	0.02000000000000001	0	j	1	0.3839207566343248
9	49	62	n/a	n/a	n/a	f	2	0.03000000000000001	1	f	1	0.3815347799099982
9	50	82	n/a	n/a	n/a	j	2	0.02000000000000001	1	j	1	0.4250639616511762
9	51	82	n/a	n/a	n/a	j	2	0.01000000000000001	2	j	1	0.413938335608691
9	52	102	n/a	n/a	n/a	j	2	0.02000000000000001	2	j	1	0.3785768980160356
9	53	102	n/a	n/a	n/a	f	2	0.03000000000000001	2	j	0	1.297627023421228
9	54	122	n/a	n/a	n/a	j	2	0.02000000000000001	2	j	1	0.3927827123552561
9	55	102	n/a	n/a	n/a	j	2	0.03000000000000001	1	j	1	0.3508115857839584
9	56	82	n/a	n/a	n/a	j	2	0.02000000000000001	0	j	1	0.3762650466524065
9	57	62	n/a	n/a	n/a	f	2	0.03000000000000001	1	f	1	0.3165782769210637
9	58	82	n/a	n/a	n/a	j	2	0.02000000000000001	0	j	1	0.378529857378453
9	59	62	n/a	n/a	n/a	j	2	0.03000000000000001	1	j	1	0.3994622500613332
9	60	82	n/a	n/a	n/a	j	2	0.02000000000000001	1	j	1	0.3922664015553892
9	61	82	n/a	n/a	n/a	f	2	0.01000000000000001	1	f	1	0.4359940104186535
9	62	82	n/a	n/a	n/a	j	2	1.040834085586084e-17	2	j	1	0.3844960825517774
9	63	102	n/a	n/a	n/a	j	2	0.01000000000000001	1	j	1	0.3995167035609484
9	64	82	n/a	n/a	n/a	j	2	1.040834085586084e-17	2	j	1	0.3813828234560788
9	65	102	n/a	n/a	n/a	f	2	0.01000000000000001	1	f	1	0.395944437943399
9	66	82	n/a	n/a	n/a	j	2	1.040834085586084e-17	2	j	1	0.4100242392159998
9	67	102	n/a	n/a	n/a	j	2	0.01000000000000001	2	j	1	0.3995013083331287
9	68	102	n/a	n/a	n/a	j	2	0.02000000000000001	1	j	1	0.3975244453176856
9	69	82	n/a	n/a	n/a	f	2	0.01000000000000001	1	f	1	0.3812650782056153
9	70	82	n/a	n/a	n/a	j	2	1.040834085586084e-17	0	j	1	0.3924006819725037
9	71	62	n/a	n/a	n/a	j	2	0.01000000000000001	1	j	1	0.3580673043616116
10	0	91	f	1	0.04158253967761993	f	11	0.1	0	f	1	1.050408572424203
10	1	71	n/a	n/a	n/a	f	11	0.11	1	f	1	0.9442569771781564
10	2	91	n/a	n/a	n/a	j	11	0.1	1	j	1	0.9367287056520581
10	3	91	n/a	n/a	n/a	f	11	0.09000000000000001	1	f	1	0.9195601637475193
10	4	91	n/a	n/a	n/a	f	11	0.08000000000000002	1	f	1	0.9576382907107472
10	5	91	n/a	n/a	n/a	f	11	0.07000000000000002	1	f	1	0.9323852523230016
10	6	91	n/a	n/a	n/a	f	11	0.06000000000000002	1	f	1	0.9205916449427605
10	7	91	n/a	n/a	n/a	f	11	0.05000000000000002	0	f	1	0.981336694676429
10	8	71	n/a	n/a	n/a	j	11	0.06000000000000002	1	j	1	1.010253228712827
10	9	91	n/a	n/a	n/a	f	11	0.05000000000000002	1	f	1	0.9791055251844227
10	10	91	n/a	n/a	n/a	f	11	0.04000000000000001	1	f	1	0.9460918614640832
10	11	91	n/a	n/a	n/a	f	11	0.03000000000000001	0	f	1	0.9462557923980057
10	12	71	n/a	n/a	n/a	f	11	0.04000000000000001	1	f	1	0.9870357834734023
10	13	91	n/a	n/a	n/a	f	11	0.03000000000000001	1	f	1	0.9520942941308022
10	14	91	n/a	n/a	n/a	j	11	0.02000000000000001	0	j	1	0.9639032976701856
10	15	71	n/a	n/a	n/a	f	11	0.03000000000000001	1	f	1	0.8988045309670269
10	16	91	n/a	n/a	n/a	f	11	0.02000000000000001	0	f	1	0.969899742398411
10	17	71	n/a	n/a	n/a	f	11	0.03000000000000001	1	f	1	0.9778160317800939
10	18	91	n/a	n/a	n/a	f	11	0.02000000000000001	1	f	1	0.965802613645792
10	19	91	n/a	n/a	n/a	f	11	0.01000000000000001	0	f	1	0.9468707465566695
10	20	71	n/a	n/a	n/a	j	11	0.02000000000000001	0	j	1	1.062646361533552
10	21	71	n/a	n/a	n/a	f	11	0.03000000000000001	2	f	1	0.987552949693054
10	22	111	n/a	n/a	n/a	f	11	0.04000000000000001	1	f	1	0.9710455476306379
10	23	91	n/a	n/a	n/a	f	11	0.03000000000000001	1	f	1	0.9436257723718882
10	24	91	n/a	n/a	n/a	f	11	0.02000000000000001	0	f	1	1.013448026031256
10	25	71	n/a	n/a	n/a	f	11	0.03000000000000001	2	f	1	0.9696591212414205
10	26	111	n/a	n/a	n/a	j	11	0.04000000000000001	1	j	1	0.991479305550456
10	27	91	n/a	n/a	n/a	f	11	0.03000000000000001	1	f	1	0.9458997063338757
10	28	91	n/a	n/a	n/a	f	11	0.02000000000000001	0	f	1	0.9901330773718655
10	29	71	n/a	n/a	n/a	f	11	0.03000000000000001	1	f	1	1.028107999358326
10	30	91	n/a	n/a	n/a	f	11	0.02000000000000001	2	f	1	0.9990968126803637
10	31	111	n/a	n/a	n/a	f	11	0.03000000000000001	1	f	1	1.013523861765862
10	32	91	n/a	n/a	n/a	j	11	0.02000000000000001	2	j	1	1.025022394489497
10	33	111	n/a	n/a	n/a	f	11	0.03000000000000001	2	f	1	1.061894275713712
10	34	111	n/a	n/a	n/a	f	11	0.04000000000000001	2	f	1	1.028825018089265
10	35	111	n/a	n/a	n/a	f	11	0.05000000000000002	1	f	1	1.018692100420594
10	36	91	n/a	n/a	n/a	f	11	0.04000000000000001	1	f	1	1.034195105545223
10	37	91	n/a	n/a	n/a	f	11	0.03000000000000001	2	f	1	1.016821294091642
10	38	111	n/a	n/a	n/a	j	11	0.04000000000000001	1	j	1	1.01472925208509
10	39	91	n/a	n/a	n/a	f	11	0.03000000000000001	1	f	1	1.002579557709396
10	40	91	n/a	n/a	n/a	f	11	0.02000000000000001	1	f	1	0.9516481170430779
10	41	91	n/a	n/a	n/a	f	11	0.01000000000000001	0	f	1	1.011420701164752
10	42	71	n/a	n/a	n/a	f	11	0.02000000000000001	2	f	1	1.013355939649045
10	43	111	n/a	n/a	n/a	f	11	0.03000000000000001	1	f	1	1.033016799483448
10	44	91	n/a	n/a	n/a	j	11	0.02000000000000001	2	j	1	1.012162238359451
10	45	111	n/a	n/a	n/a	f	11	0.03000000000000001	1	f	1	1.031224394682795
10	46	91	n/a	n/a	n/a	f	11	0.02000000000000001	2	f	1	0.9640056472271681
10	47	111	n/a	n/a	n/a	f	11	0.03000000000000001	1	f	1	0.9922379488125443
10	48	91	n/a	n/a	n/a	f	11	0.02000000000000001	1	f	1	1.084023790899664
10	49	91	n/a	n/a	n/a	f	11	0.01000000000000001	2	f	1	1.033586423378438
10	50	111	n/a	n/a	n/a	j	11	0.02000000000000001	2	j	1	0.9656803072430193
10	51	111	n/a	n/a	n/a	f	11	0.03000000000000001	1	f	1	0.9213502882048488
10	52	91	n/a	n/a	n/a	f	11	0.02000000000000001	0	f	1	1.055930901318789
10	53	71	n/a	n/a	n/a	f	11	0.03000000000000001	2	f	1	0.9786684713326395
10	54	111	n/a	n/a	n/a	f	11	0.04000000000000001	1	f	1	1.022885592188686
10	55	91	n/a	n/a	n/a	f	11	0.03000000000000001	2	f	1	0.9913019752129912
10	56	111	n/a	n/a	n/a	j	11	0.04000000000000001	1	j	1	0.9553606505505741
10	57	91	n/a	n/a	n/a	f	11	0.03000000000000001	0	f	1	0.9664266910403967
10	58	71	n/a	n/a	n/a	f	11	0.04000000000000001	1	f	1	0.9344085860066116
10	59	91	n/a	n/a	n/a	f	11	0.03000000000000001	0	f	1	0.9238485926762223
10	60	71	n/a	n/a	n/a	f	11	0.04000000000000001	0	f	1	0.919303291477263
10	61	71	n/a	n/a	n/a	f	11	0.05000000000000002	0	f	1	0.9892176310531795
10	62	71	n/a	n/a	n/a	j	11	0.06000000000000002	1	j	1	0.9772652238607407
10	63	91	n/a	n/a	n/a	f	11	0.05000000000000002	1	f	1	0.9450791971758008
10	64	91	n/a	n/a	n/a	f	11	0.04000000000000001	0	f	1	0.902082861866802
10	65	71	n/a	n/a	n/a	f	11	0.05000000000000002	0	f	1	1.064823932945728
10	66	71	n/a	n/a	n/a	f	11	0.06000000000000002	2	f	1	1.060955736320466
10	67	111	n/a	n/a	n/a	f	11	0.07000000000000002	2	f	1	0.9949209964834154
10	68	111	n/a	n/a	n/a	j	11	0.08000000000000002	1	j	1	0.8298506829887629
10	69	91	n/a	n/a	n/a	f	11	0.07000000000000002	0	f	1	0.8170284456573427
10	70	71	n/a	n/a	n/a	f	11	0.08000000000000002	0	f	1	0.9280492123216391
10	71	71	n/a	n/a	n/a	f	11	0.09000000000000001	1	f	1	0.924027063883841
11	0	84	j	1	0.06154617248103023	j	4	0.1	2	j	1	0.4145917780697346
11	1	104	n/a	n/a	n/a	j	4	0.11	1	j	1	0.4209597050212324
11	2	84	n/a	n/a	n/a	f	4	0.1	1	f	1	0.4589987737126648
11	3	84	n/a	n/a	n/a	j	4	0.09000000000000001	1	j	1	0.4029122088104486
11	4	84	n/a	n/a	n/a	j	4	0.08000000000000002	1	j	1	0.3865410829894245
11	5	84	n/a	n/a	n/a	j	4	0.07000000000000002	1	j	1	0.4218951081857085
11	6	84	n/a	n/a	n/a	j	4	0.06000000000000002	1	j	1	0.3968815519474447
11	7	84	n/a	n/a	n/a	j	4	0.05000000000000002	1	j	1	0.3623879496008158
11	8	84	n/a	n/a	n/a	f	4	0.04000000000000001	1	f	1	0.4299026275984943
11	9	84	n/a	n/a	n/a	j	4	0.03000000000000001	2	j	1	0.3778399229049683
11	10	104	n/a	n/a	n/a	j	4	0.04000000000000001	1	j	1	0.3887303434312344
11	11	84	n/a	n/a	n/a	j	4	0.03000000000000001	1	j	1	0.4170404765754938
11	12	84	n/a	n/a	n/a	j	4	0.02000000000000001	2	j	1	0.3972008605487645
11	13	104	n/a	n/a	n/a	j	4	0.03000000000000001	1	j	1	0.40129086188972
11	14	84	n/a	n/a	n/a	f	4	0.02000000000000001	1	f	1	0.367838719394058
11	15	84	n/a	n/a	n/a	j	4	0.01000000000000001	0	j	1	0.4181446568109095
11	16	64	n/a	n/a	n/a	j	4	0.02000000000000001	2	j	1	0.3672571214847267
11	17	104	n/a	n/a	n/a	j	4	0.03000000000000001	1	j	1	0.3895326061174273
11	18	84	n/a	n/a	n/a	j	4	0.02000000000000001	1	j	1	0.4015254969708622
11	19	84	n/a	n/a	n/a	j	4	0.01000000000000001	2	j	1	0.3646513349376619
11	20	104	n/a	n/a	n/a	f	4	0.02000000000000001	1	f	1	0.3844561688601971
11	21	84	n/a	n/a	n/a	j	4	0.01000000000000001	1	j	1	0.3675804217346013
11	22	84	n/a	n/a	n/a	j	4	1.040834085586084e-17	0	j	1	0.3874496873468161
11	23	64	n/a	n/a	n/a	j	4	0.01000000000000001	1	j	1	0.3863503532484174
11	24	84	n/a	n/a	n/a	j	4	1.040834085586084e-17	2	j	1	0.3614713628776371
11	25	104	n/a	n/a	n/a	j	4	0.01000000000000001	0	j	1	0.3921170108951628
11	26	64	n/a	n/a	n/a	f	4	0.02000000000000001	1	f	1	0.3723831656388938
11	27	84	n/a	n/a	n/a	j	4	0.01000000000000001	0	j	1	0.3709100699052215
11	28	64	n/a	n/a	n/a	j	4	0.02000000000000001	1	j	1	0.3840661561116576
11	29	84	n/a	n/a	n/a	j	4	0.01000000000000001	1	j	1	0.3903197590261698
11	30	84	n/a	n/a	n/a	j	4	1.040834085586084e-17	2	j	1	0.3948844475671649
11	31	104	n/a	n/a	n/a	j	4	0.01000000000000001	1	j	1	0.4072613636963069
11	32	84	n/a	n/a	n/a	f	4	1.040834085586084e-17	2	f	1	0.3639152143150568
11	33	104	n/a	n/a	n/a	j	4	0.01000000000000001	0	j	1	0.3472042535431683
11	34	64	n/a	n/a	n/a	j	4	0.02000000000000001	0	j	1	0.3892460837960243
11	35	64	n/a	n/a	n/a	j	4	0.03000000000000001	1	j	1	0.3713015080429614
11	36	84	n/a	n/a	n/a	j	4	0.02000000000000001	1	j	1	0.411191426217556
11	37	84	n/a	n/a	n/a	j	4	0.01000000000000001	2	j	1	0.3693511593155563
11	38	104	n/a	n/a	n/a	f	4	0.02000000000000001	0	f	1	0.3511177799664438
11	39	64	n/a	n/a	n/a	j	4	0.03000000000000001	0	j	1	0.3821349088102579
11	40	64	n/a	n/a	n/a	j	4	0.04000000000000001	1	j	1	0.3790875072591007
11	41	84	n/a	n/a	n/a	j	4	0.03000000000000001	1	j	1	0.3768092966638505
11	42	84	n/a	n/a	n/a	j	4	0.02000000000000001	1	j	1	0.3981348383240402
11	43	84	n/a	n/a	n/a	j	4	0.01000000000000001	1	j	1	0.3907097717747092
11	44	84	n/a	n/a	n/a	f	4	1.040834085586084e-17	2	f	1	0.354942926671356
11	45	104	n/a	n/a	n/a	j	4	0.01000000000000001	0	j	1	0.3893957594409585
11	46	64	n/a	n/a	n/a	j	4	0.02000000000000001	1	j	1	0.4024982480332255
11	47	84	n/a	n/a	n/a	j	4	0.01000000000000001	2	j	1	0.3318628976121545
11	48	104	n/a	n/a	n/a	j	4	0.02000000000000001	0	j	1	0.3869701544754207
11	49	64	n/a	n/a	n/a	j	4	0.03000000000000001	1	j	1	0.3578674513846636
11	50	84	n/a	n/a	n/a	f	4	0.02000000000000001	0	f	1	0.3305648514069617
11	51	64	n/a	n/a	n/a	j	4	0.03000000000000001	0	j	1	0.3689511679112911
11	52	64	n/a	n/a	n/a	j	4	0.04000000000000001	1	j	1	0.3728444529697299
11	53	84	n/a	n/a	n/a	j	4	0.03000000000000001	1	j	1	0.4027753621339798
11	54	84	n/a	n/a	n/a	j	4	0.02000000000000001	1	j	1	0.3778416328132153
11	55	84	n/a	n/a	n/a	j	4	0.01000000000000001	0	j	1	0.3735184222459793
11	56	64	n/a	n/a	n/a	f	4	0.02000000000000001	1	f	1	0.3387354463338852
11	57	84	n/a	n/a	n/a	j	4	0.01000000000000001	0	j	1	0.3826617682352662
11	58	64	n/a	n/a	n/a	j	4	0.02000000000000001	1	j	1	0.3946632123552263
11	59	84	n/a	n/a	n/a	j	4	0.01000000000000001	2	j	1	0.3764720275066793
11	60	104	n/a	n/a	n/a	j	4	0.02000000000000001	1	j	1	0.4126035114750266
11	61	84	n/a	n/a	n/a	j	4	0.01000000000000001	2	j	1	0.4087276179343462
11	62	104	n/a	n/a	n/a	f	4	0.02000000000000001	2	f	1	0.3412879197858274
11	63	104	n/a	n/a	n/a	j	4	0.03000000000000001	0	j	1	0.369397914968431
11	64	64	n/a	n/a	n/a	j	4	0.04000000000000001	1	j	1	0.3725299905054271
11	65	84	n/a	n/a	n/a	j	4	0.03000000000000001	1	j	1	0.3835176294669509
11	66	84	n/a	n/a	n/a	j	4	0.02000000000000001	1	j	1	0.3884318466298282
11	67	84	n/a	n/a	n/a	j	4	0.01000000000000001	1	j	1	0.3847449719905853
11	68	84	n/a	n/a	n/a	f	4	1.040834085586084e-17	0	f	1	0.3495238022878766
11	69	64	n/a	n/a	n/a	j	4	0.01000000000000001	0	j	1	0.3760763122700155
11	70	64	n/a	n/a	n/a	j	4	0.02000000000000001	1	j	1	0.396442502271384
11	71	84	n/a	n/a	n/a	j	4	0.01000000000000001	2	j	1	0.3696579234674573
12	0	107	f	1	0.03717550961300731	f	7	0.08000000000000003	0	f	1	0.5264475946314633
12	1	67	n/a	n/a	n/a	f	7	0.09000000000000002	1	f	1	0.5532179186120629
12	2	87	n/a	n/a	n/a	j	7	0.08000000000000003	1	j	1	0.5684820124879479
12	3	87	n/a	n/a	n/a	f	7	0.07000000000000003	1	f	1	0.5363735319115222
12	4	87	n/a	n/a	n/a	f	7	0.06000000000000003	1	f	1	0.5662833438254893
12	5	87	n/a	n/a	n/a	f	7	0.05000000000000003	1	f	1	0.611121691763401
12	6	87	n/a	n/a	n/a	f	7	0.04000000000000003	1	f	1	0.4963949485681951
12	7	87	n/a	n/a	n/a	f	7	0.03000000000000003	0	f	1	0.5573820453137159
12	8	67	n/a	n/a	n/a	j	7	0.04000000000000003	1	j	1	0.5502480627037585
12	9	87	n/a	n/a	n/a	f	7	0.03000000000000003	0	f	1	0.5293897953815758
12	10	67	n/a	n/a	n/a	f	7	0.04000000000000003	0	f	1	0.5436697346158326
12	11	67	n/a	n/a	n/a	f	7	0.05000000000000003	1	f	1	0.5791663080453873
12	12	87	n/a	n/a	n/a	f	7	0.04000000000000003	1	f	1	0.5501152076758444
12	13	87	n/a	n/a	n/a	f	7	0.03000000000000003	0	f	1	0.5800059186294675
12	14	67	n/a	n/a	n/a	j	7	0.04000000000000003	1	j	1	0.5761340162716806
12	15	87	n/a	n/a	n/a	f	7	0.03000000000000003	1	f	1	0.5959713510237634
12	16	87	n/a	n/a	n/a	f	7	0.02000000000000002	1	f	1	0.5611071228049695
12	17	87	n/a	n/a	n/a	f	7	0.01000000000000002	0	f	1	0.5999513054266572
12	18	67	n/a	n/a	n/a	f	7	0.02000000000000002	1	f	1	0.6039138687774539
12	19	87	n/a	n/a	n/a	f	7	0.01000000000000002	2	f	1	0.561885152477771
12	20	107	n/a	n/a	n/a	j	7	0.02000000000000002	0	j	1	0.6147076413035393
12	21	67	n/a	n/a	n/a	f	7	0.03000000000000003	1	f	1	0.5715314098633826
12	22	87	n/a	n/a	n/a	f	7	0.02000000000000002	1	f	1	0.5787343862466514
12	23	87	n/a	n/a	n/a	f	7	0.01000000000000002	1	f	1	0.636435454711318
12	24	87	n/a	n/a	n/a	f	7	2.42861286636753e-17	2	f	1	0.5604779138229787
12	25	107	n/a	n/a	n/a	f	7	0.01000000000000002	0	f	1	0.5746988379396498
12	26	67	n/a	n/a	n/a	j	7	0.02000000000000002	1	j	1	0.6141531276516616
12	27	87	n/a	n/a	n/a	f	7	0.01000000000000002	2	f	1	0.5884747253730893
12	28	107	n/a	n/a	n/a	f	7	0.02000000000000002	1	f	1	0.6035021883435547
12	29	87	n/a	n/a	n/a	f	7	0.01000000000000002	2	f	1	0.5393559318035841
12	30	107	n/a	n/a	n/a	f	7	0.02000000000000002	0	f	1	0.5986706498079002
12	31	67	n/a	n/a	n/a	f	7	0.03000000000000003	1	f	1	0.5722504248842597
12	32	87	n/a	n/a	n/a	j	7	0.02000000000000002	1	j	1	0.6019062153063715
12	33	87	n/a	n/a	n/a	f	7	0.01000000000000002	2	f	1	0.6015911833383143
12	34	107	n/a	n/a	n/a	f	7	0.02000000000000002	1	f	1	0.623472664039582
12	35	87	n/a	n/a	n/a	f	7	0.01000000000000002	2	f	1	0.6122846021316946
12	36	107	n/a	n/a	n/a	f	7	0.02000000000000002	2	f	1	0.6183876735158265
12	37	107	n/a	n/a	n/a	f	7	0.03000000000000003	2	f	1	0.5772436135448515
12	38	107	n/a	n/a	n/a	j	7	0.04000000000000003	1	j	1	0.6126991328783333
12	39	87	n/a	n/a	n/a	f	7	0.03000000000000003	1	f	1	0.6193034052848816
12	40	87	n/a	n/a	n/a	f	7	0.02000000000000002	2	f	1	0.579164027236402
12	41	107	n/a	n/a	n/a	f	7	0.03000000000000003	1	f	1	0.6510432558134198
12	42	87	n/a	n/a	n/a	f	7	0.02000000000000002	2	f	1	0.5990093448199332
12	43	107	n/a	n/a	n/a	f	7	0.03000000000000003	1	f	1	0.598963444121182
12	44	87	n/a	n/a	n/a	j	7	0.02000000000000002	1	j	1	0.6056535304524004
12	45	87	n/a	n/a	n/a	f	7	0.01000000000000002	2	f	1	0.5648726844228804
12	46	107	n/a	n/a	n/a	f	7	0.02000000000000002	1	f	1	0.546571736689657
12	47	87	n/a	n/a	n/a	f	7	0.01000000000000002	0	f	1	0.6317801056429744
12	48	67	n/a	n/a	n/a	f	7	0.02000000000000002	2	f	1	0.612978242803365
12	49	107	n/a	n/a	n/a	f	7	0.03000000000000003	1	f	1	0.6280618710443377
12	50	87	n/a	n/a	n/a	j	7	0.02000000000000002	2	j	1	0.6257654139772058
12	51	107	n/a	n/a	n/a	f	7	0.03000000000000003	2	f	1	0.615789299365133
12	52	107	n/a	n/a	n/a	f	7	0.04000000000000003	1	f	1	0.5536504103802145
12	53	87	n/a	n/a	n/a	f	7	0.03000000000000003	0	f	1	0.5851296819746494
12	54	67	n/a	n/a	n/a	f	7	0.04000000000000003	1	f	1	0.575448642950505
12	55	87	n/a	n/a	n/a	f	7	0.03000000000000003	1	f	1	0.6295132995583117
12	56	87	n/a	n/a	n/a	j	7	0.02000000000000002	2	j	1	0.6322721834294498
12	57	107	n/a	n/a	n/a	f	7	0.03000000000000003	2	f	1	0.6273562554270029
12	58	107	n/a	n/a	n/a	f	7	0.04000000000000003	2	f	1	0.5384972193278372
12	59	107	n/a	n/a	n/a	f	7	0.05000000000000003	0	f	1	0.6154725570231676
12	60	67	n/a	n/a	n/a	f	7	0.06000000000000003	1	f	1	0.6140650329180062
12	61	87	n/a	n/a	n/a	f	7	0.05000000000000003	1	f	1	0.4753881450742483
12	62	87	n/a	n/a	n/a	j	7	0.04000000000000003	0	j	1	0.5398730975575745
12	63	67	n/a	n/a	n/a	f	7	0.05000000000000003	1	f	1	0.5832928023301065
12	64	87	n/a	n/a	n/a	f	7	0.04000000000000003	1	f	1	0.5812401035800576
12	65	87	n/a	n/a	n/a	f	7	0.03000000000000003	1	f	1	0.6032664133235812
12	66	87	n/a	n/a	n/a	f	7	0.02000000000000002	1	f	1	0.5853668828494847
12	67	87	n/a	n/a	n/a	f	7	0.01000000000000002	1	f	1	0.5851721614599228
12	68	87	n/a	n/a	n/a	j	7	2.42861286636753e-17	0	j	1	0.5639161840081215
12	69	67	n/a	n/a	n/a	f	7	0.01000000000000002	0	f	1	0.5779734617099166
12	70	67	n/a	n/a	n/a	f	7	0.02000000000000002	1	f	1	0.5829703575000167
12	71	87	n/a	n/a	n/a	f	7	0.01000000000000002	1	f	1	0.5906799505464733
13	0	88	j	1	0.01262894226238132	j	8	0.02000000000000001	1	j	1	0.5900815320201218
13	1	88	n/a	n/a	n/a	j	8	0.01000000000000001	1	j	1	0.6099365432746708
13	2	88	n/a	n/a	n/a	f	8	1.040834085586084e-17	2	f	1	0.6319434666074812
13	3	108	n/a	n/a	n/a	j	8	0.01000000000000001	2	j	1	0.6299680294468999
13	4	108	n/a	n/a	n/a	j	8	0.02000000000000001	2	j	1	0.5978991771116853
13	5	108	n/a	n/a	n/a	j	8	0.03000000000000001	1	j	1	0.6171004609204829
13	6	88	n/a	n/a	n/a	j	8	0.02000000000000001	2	j	1	0.600018588360399
13	7	108	n/a	n/a	n/a	j	8	0.03000000000000001	1	j	1	0.5644176690839231
13	8	88	n/a	n/a	n/a	f	8	0.02000000000000001	1	f	1	0.6479927175678313
13	9	88	n/a	n/a	n/a	j	8	0.01000000000000001	2	j	1	0.6042665336281061
13	10	108	n/a	n/a	n/a	j	8	0.02000000000000001	2	j	1	0.5677749714814126
13	11	108	n/a	n/a	n/a	j	8	0.03000000000000001	1	j	1	0.5810026177205145
13	12	88	n/a	n/a	n/a	j	8	0.02000000000000001	1	j	1	0.5861722817644477
13	13	88	n/a	n/a	n/a	j	8	0.01000000000000001	1	j	1	0.5847328267991543
13	14	88	n/a	n/a	n/a	f	8	1.040834085586084e-17	0	f	1	0.5487213684245944
13	15	68	n/a	n/a	n/a	j	8	0.01000000000000001	0	j	1	0.5793550424277782
13	16	68	n/a	n/a	n/a	j	8	0.02000000000000001	1	j	1	0.6175272511318326
13	17	88	n/a	n/a	n/a	j	8	0.01000000000000001	2	j	1	0.653739987872541
13	18	108	n/a	n/a	n/a	j	8	0.02000000000000001	2	j	1	0.6363983922637999
13	19	108	n/a	n/a	n/a	j	8	0.03000000000000001	2	j	1	0.5773907238617539
13	20	108	n/a	n/a	n/a	f	8	0.04000000000000001	1	f	1	0.6693268115632236
13	21	88	n/a	n/a	n/a	j	8	0.03000000000000001	2	j	1	0.6203967523761094
13	22	108	n/a	n/a	n/a	j	8	0.04000000000000001	1	j	1	0.6421781638637185
13	23	88	n/a	n/a	n/a	j	8	0.03000000000000001	2	j	1	0.6452352590858936
13	24	108	n/a	n/a	n/a	j	8	0.04000000000000001	2	j	1	0.5688677486032248
13	25	108	n/a	n/a	n/a	j	8	0.05000000000000002	1	j	1	0.5577931553125381
13	26	88	n/a	n/a	n/a	f	8	0.04000000000000001	1	f	1	0.6350801037624478
13	27	88	n/a	n/a	n/a	j	8	0.03000000000000001	2	j	1	0.6202701693400741
13	28	108	n/a	n/a	n/a	j	8	0.04000000000000001	1	j	1	0.5940737454220653
13	29	88	n/a	n/a	n/a	j	8	0.03000000000000001	1	j	1	0.5911908443085849
13	30	88	n/a	n/a	n/a	j	8	0.02000000000000001	1	j	1	0.5990612329915166
13	31	88	n/a	n/a	n/a	j	8	0.01000000000000001	2	j	1	0.5969432471320033
13	32	108	n/a	n/a	n/a	f	8	0.02000000000000001	1	f	1	0.6180261708796024
13	33	88	n/a	n/a	n/a	j	8	0.01000000000000001	2	j	1	0.5584406103007495
13	34	108	n/a	n/a	n/a	j	8	0.02000000000000001	0	j	1	0.5707211643457413
13	35	68	n/a	n/a	n/a	j	8	0.03000000000000001	1	j	1	0.5821780725382268
13	36	88	n/a	n/a	n/a	j	8	0.02000000000000001	1	j	1	0.6308164778165519
13	37	88	n/a	n/a	n/a	j	8	0.01000000000000001	2	j	1	0.5818302542902529
13	38	108	n/a	n/a	n/a	f	8	0.02000000000000001	1	f	1	0.6130010508932173
13	39	88	n/a	n/a	n/a	j	8	0.01000000000000001	2	j	1	0.6192663428373635
13	40	108	n/a	n/a	n/a	j	8	0.02000000000000001	2	j	1	0.5608642199076712
13	41	108	n/a	n/a	n/a	j	8	0.03000000000000001	1	j	1	0.6045311037451029
13	42	88	n/a	n/a	n/a	j	8	0.02000000000000001	1	j	1	0.5693946080282331
13	43	88	n/a	n/a	n/a	j	8	0.01000000000000001	0	j	1	0.589527303352952
13	44	68	n/a	n/a	n/a	f	8	0.02000000000000001	1	f	1	0.6275201863609254
13	45	88	n/a	n/a	n/a	j	8	0.01000000000000001	2	j	1	0.624628446996212
13	46	108	n/a	n/a	n/a	j	8	0.02000000000000001	2	j	1	0.5926471203565598
13	47	108	n/a	n/a	n/a	j	8	0.03000000000000001	1	j	1	0.5733905276283622
13	48	88	n/a	n/a	n/a	j	8	0.02000000000000001	1	j	1	0.5824400773271918
13	49	88	n/a	n/a	n/a	j	8	0.01000000000000001	1	j	1	0.5948956799693406
13	50	88	n/a	n/a	n/a	f	8	1.040834085586084e-17	2	f	1	0.5840517305769026
13	51	108	n/a	n/a	n/a	j	8	0.01000000000000001	1	j	1	0.6352588594891131
13	52	88	n/a	n/a	n/a	j	8	1.040834085586084e-17	2	j	1	0.5708212335593998
13	53	108	n/a	n/a	n/a	j	8	0.01000000000000001	0	j	1	0.5577834621071815
13	54	68	n/a	n/a	n/a	j	8	0.02000000000000001	0	j	1	0.5461241346783936
13	55	68	n/a	n/a	n/a	j	8	0.03000000000000001	0	j	1	0.5779101704247296
13	56	68	n/a	n/a	n/a	f	8	0.04000000000000001	1	f	1	0.6328706019558012
13	57	88	n/a	n/a	n/a	j	8	0.03000000000000001	2	j	1	0.5682947034947574
13	58	108	n/a	n/a	n/a	j	8	0.04000000000000001	1	j	1	0.5966792469844222
13	59	88	n/a	n/a	n/a	j	8	0.03000000000000001	1	j	1	0.6200614785775542
13	60	88	n/a	n/a	n/a	j	8	0.02000000000000001	2	j	1	0.5451322821900249
13	61	108	n/a	n/a	n/a	j	8	0.03000000000000001	0	j	1	0.5819705221801996
13	62	68	n/a	n/a	n/a	f	8	0.04000000000000001	1	f	1	0.6117255268618464
13	63	88	n/a	n/a	n/a	j	8	0.03000000000000001	1	j	1	0.5531532014720142
13	64	88	n/a	n/a	n/a	j	8	0.02000000000000001	0	j	1	0.5520806666463614
13	65	68	n/a	n/a	n/a	j	8	0.03000000000000001	0	j	1	0.605487319175154
13	66	68	n/a	n/a	n/a	j	8	0.04000000000000001	1	j	1	0.5774417561478913
13	67	88	n/a	n/a	n/a	j	8	0.03000000000000001	1	j	1	0.5369930476881564
13	68	88	n/a	n/a	n/a	f	8	0.02000000000000001	1	j	0	1.341716706287116
13	69	128	n/a	n/a	n/a	j	8	0.03000000000000001	1	f	0	0.6402828390710056
13	70	128	n/a	n/a	n/a	j	8	0.04000000000000001	1	f	0	0.5397713179700077
13	71	128	n/a	n/a	n/a	j	8	0.05000000000000002	1	j	1	0.6006768774241209
14	0	90	j	1	0.005732730496674776	j	10	0.04000000000000001	0	j	1	1.06269881920889
14	1	70	n/a	n/a	n/a	f	10	0.05000000000000002	2	f	1	1.08238334255293
14	2	110	n/a	n/a	n/a	j	10	0.06000000000000002	2	j	1	1.030919340904802
14	3	110	n/a	n/a	n/a	j	10	0.07000000000000002	1	j	1	0.9957412206567824
14	4	90	n/a	n/a	n/a	j	10	0.06000000000000002	1	j	1	1.01591126434505
14	5	90	n/a	n/a	n/a	f	10	0.05000000000000002	1	f	1	0.9964123391546309
14	6	90	n/a	n/a	n/a	j	10	0.04000000000000001	1	j	1	0.9736727168783545
14	7	90	n/a	n/a	n/a	j	10	0.03000000000000001	1	j	1	0.9566176431253552
14	8	90	n/a	n/a	n/a	j	10	0.02000000000000001	0	j	1	0.9305803035385907
14	9	70	n/a	n/a	n/a	f	10	0.03000000000000001	0	f	1	0.9744672817178071
14	10	70	n/a	n/a	n/a	j	10	0.04000000000000001	1	j	1	0.9564337553456426
14	11	90	n/a	n/a	n/a	j	10	0.03000000000000001	1	j	1	0.9525678399950266
14	12	90	n/a	n/a	n/a	j	10	0.02000000000000001	0	j	1	0.928497954737395
14	13	70	n/a	n/a	n/a	f	10	0.03000000000000001	0	f	1	0.9558142400346696
14	14	70	n/a	n/a	n/a	j	10	0.04000000000000001	1	j	1	0.9141550096683204
14	15	90	n/a	n/a	n/a	j	10	0.03000000000000001	0	j	1	0.9599740905687213
14	16	70	n/a	n/a	n/a	j	10	0.04000000000000001	1	j	1	0.9956953204236925
14	17	90	n/a	n/a	n/a	f	10	0.03000000000000001	1	f	1	0.9190572528168559
14	18	90	n/a	n/a	n/a	j	10	0.02000000000000001	0	j	1	0.9478808455169201
14	19	70	n/a	n/a	n/a	j	10	0.03000000000000001	0	j	1	0.9539197701960802
14	20	70	n/a	n/a	n/a	j	10	0.04000000000000001	1	j	1	0.9508812059648335
14	21	90	n/a	n/a	n/a	f	10	0.03000000000000001	0	f	1	0.9487700629979372
14	22	70	n/a	n/a	n/a	j	10	0.04000000000000001	1	j	1	0.9137764009647071
14	23	90	n/a	n/a	n/a	j	10	0.03000000000000001	0	j	1	0.8867360893636942
14	24	70	n/a	n/a	n/a	j	10	0.04000000000000001	0	j	1	0.9576802002266049
14	25	70	n/a	n/a	n/a	f	10	0.05000000000000002	1	f	1	0.9715684158727527
14	26	90	n/a	n/a	n/a	j	10	0.04000000000000001	1	j	1	0.9562638378702104
14	27	90	n/a	n/a	n/a	j	10	0.03000000000000001	1	j	1	0.9963533240370452
14	28	90	n/a	n/a	n/a	j	10	0.02000000000000001	1	j	1	0.9521476072259247
14	29	90	n/a	n/a	n/a	f	10	0.01000000000000001	0	f	1	0.9404686079360545
14	30	70	n/a	n/a	n/a	j	10	0.02000000000000001	0	j	1	0.9440625412389636
14	31	70	n/a	n/a	n/a	j	10	0.03000000000000001	0	j	1	0.9108738279901445
14	32	70	n/a	n/a	n/a	j	10	0.04000000000000001	0	j	1	0.9802844012156129
14	33	70	n/a	n/a	n/a	f	10	0.05000000000000002	1	f	1	0.9781324891373515
14	34	90	n/a	n/a	n/a	j	10	0.04000000000000001	1	j	1	0.9773125504143536
14	35	90	n/a	n/a	n/a	j	10	0.03000000000000001	1	j	1	0.9909863728098571
14	36	90	n/a	n/a	n/a	j	10	0.02000000000000001	1	j	1	0.9881271347403526
14	37	90	n/a	n/a	n/a	f	10	0.01000000000000001	1	f	1	0.9748627115041018
14	38	90	n/a	n/a	n/a	j	10	1.040834085586084e-17	0	j	1	0.9071019943803549
14	39	70	n/a	n/a	n/a	j	10	0.01000000000000001	0	j	1	0.9588171667419374
14	40	70	n/a	n/a	n/a	j	10	0.02000000000000001	0	j	1	0.9797897581011057
14	41	70	n/a	n/a	n/a	f	10	0.03000000000000001	1	f	1	0.9466475155204535
14	42	90	n/a	n/a	n/a	j	10	0.02000000000000001	0	j	1	0.9456151793710887
14	43	70	n/a	n/a	n/a	j	10	0.03000000000000001	0	j	1	0.9865297363139689
14	44	70	n/a	n/a	n/a	j	10	0.04000000000000001	1	j	1	1.025843759067357
14	45	90	n/a	n/a	n/a	f	10	0.03000000000000001	2	f	1	0.9814113900065422
14	46	110	n/a	n/a	n/a	j	10	0.04000000000000001	1	j	1	1.064610965084285
14	47	90	n/a	n/a	n/a	j	10	0.03000000000000001	2	j	1	0.9894209052436054
14	48	110	n/a	n/a	n/a	j	10	0.04000000000000001	1	j	1	0.9542211177758873
14	49	90	n/a	n/a	n/a	f	10	0.03000000000000001	1	f	1	1.008430888410658
14	50	90	n/a	n/a	n/a	j	10	0.02000000000000001	2	j	1	0.9951316830702126
14	51	110	n/a	n/a	n/a	j	10	0.03000000000000001	1	j	1	1.025089962407947
14	52	90	n/a	n/a	n/a	j	10	0.02000000000000001	2	j	1	0.975126426666975
14	53	110	n/a	n/a	n/a	f	10	0.03000000000000001	1	f	1	0.8987734555266798
14	54	90	n/a	n/a	n/a	j	10	0.02000000000000001	0	j	1	0.9450124842114747
14	55	70	n/a	n/a	n/a	j	10	0.03000000000000001	0	j	1	1.023836105596274
14	56	70	n/a	n/a	n/a	j	10	0.04000000000000001	1	j	1	0.9648911585099995
14	57	90	n/a	n/a	n/a	f	10	0.03000000000000001	1	f	1	0.9054022459313273
14	58	90	n/a	n/a	n/a	j	10	0.02000000000000001	0	j	1	0.9687679074704647
14	59	70	n/a	n/a	n/a	j	10	0.03000000000000001	1	j	1	1.595677701290697
14	60	90	n/a	n/a	n/a	j	10	0.02000000000000001	2	j	1	0.9511514781042933
14	61	110	n/a	n/a	n/a	f	10	0.03000000000000001	0	f	1	0.8665537871420383
14	62	70	n/a	n/a	n/a	j	10	0.04000000000000001	0	j	1	0.9025735133327544
14	63	70	n/a	n/a	n/a	j	10	0.05000000000000002	0	j	1	0.9000846166163683
14	64	70	n/a	n/a	n/a	j	10	0.06000000000000002	0	j	1	0.8554213191382587
14	65	70	n/a	n/a	n/a	f	10	0.07000000000000002	0	f	1	0.9090050170198083
14	66	70	n/a	n/a	n/a	j	10	0.08000000000000002	1	j	1	0.9144172989763319
14	67	90	n/a	n/a	n/a	j	10	0.07000000000000002	0	j	1	0.9593041124753654
14	68	70	n/a	n/a	n/a	j	10	0.08000000000000002	1	j	1	0.8441628385335207
14	69	90	n/a	n/a	n/a	f	10	0.07000000000000002	0	f	1	0.8231631624512374
14	70	70	n/a	n/a	n/a	j	10	0.08000000000000002	0	j	1	0.8752255830913782
14	71	70	n/a	n/a	n/a	j	10	0.09000000000000001	0	j	1	0.8829836426302791
15	0	61	f	1	0.05877902079373598	f	1	1.040834085586084e-17	2	f	1	0.3804163439199328
15	1	101	n/a	n/a	n/a	j	1	0.01000000000000001	0	j	1	0.4142992687411606
15	2	61	n/a	n/a	n/a	f	1	0.02000000000000001	2	f	1	0.433129355777055
15	3	101	n/a	n/a	n/a	f	1	0.03000000000000001	2	f	1	0.4212644738145173
15	4	101	n/a	n/a	n/a	f	1	0.04000000000000001	1	f	1	0.3871968062594533
15	5	81	n/a	n/a	n/a	j	1	0.03000000000000001	1	j	1	0.3942937259562314
15	6	81	n/a	n/a	n/a	f	1	0.02000000000000001	1	f	1	0.4311262643896043
15	7	81	n/a	n/a	n/a	f	1	0.01000000000000001	2	f	1	0.4248079443350434
15	8	101	n/a	n/a	n/a	f	1	0.02000000000000001	2	f	1	0.4131377832964063
15	9	101	n/a	n/a	n/a	j	1	0.03000000000000001	1	j	1	0.4132082024589181
15	10	81	n/a	n/a	n/a	f	1	0.02000000000000001	2	f	1	0.404765909537673
15	11	101	n/a	n/a	n/a	f	1	0.03000000000000001	1	f	1	0.4131181119009852
15	12	81	n/a	n/a	n/a	f	1	0.02000000000000001	2	f	1	0.4350235406309366
15	13	101	n/a	n/a	n/a	j	1	0.03000000000000001	2	j	1	0.3980743978172541
15	14	101	n/a	n/a	n/a	f	1	0.04000000000000001	1	f	1	0.42006507050246
15	15	81	n/a	n/a	n/a	f	1	0.03000000000000001	2	f	1	0.4277843572199345
15	16	101	n/a	n/a	n/a	f	1	0.04000000000000001	2	f	1	0.4279363141395152
15	17	101	n/a	n/a	n/a	j	1	0.05000000000000002	1	j	1	0.3779012183658779
15	18	81	n/a	n/a	n/a	f	1	0.04000000000000001	1	f	1	0.3989154337905347
15	19	81	n/a	n/a	n/a	f	1	0.03000000000000001	1	f	1	0.4531175075098872
15	20	81	n/a	n/a	n/a	f	1	0.02000000000000001	2	f	1	0.3648928119800985
15	21	101	n/a	n/a	n/a	j	1	0.03000000000000001	1	j	1	0.3550361529923975
15	22	81	n/a	n/a	n/a	f	1	0.02000000000000001	0	f	1	0.4308271976187825
15	23	61	n/a	n/a	n/a	f	1	0.03000000000000001	2	f	1	0.4061004486866295
15	24	101	n/a	n/a	n/a	f	1	0.04000000000000001	1	f	1	0.4467227812856436
15	25	81	n/a	n/a	n/a	j	1	0.03000000000000001	2	j	1	0.3873370741494
15	26	101	n/a	n/a	n/a	f	1	0.04000000000000001	1	f	1	0.4228154011070728
15	27	81	n/a	n/a	n/a	f	1	0.03000000000000001	2	f	1	0.4282359508797526
15	28	101	n/a	n/a	n/a	f	1	0.04000000000000001	2	f	1	0.4332220125943422
15	29	101	n/a	n/a	n/a	j	1	0.05000000000000002	1	j	1	0.3987609115429223
15	30	81	n/a	n/a	n/a	f	1	0.04000000000000001	1	f	1	0.3866132129915059
15	31	81	n/a	n/a	n/a	f	1	0.03000000000000001	1	f	1	0.4324302980676293
15	32	81	n/a	n/a	n/a	f	1	0.02000000000000001	2	f	1	0.4084915574640036
15	33	101	n/a	n/a	n/a	j	1	0.03000000000000001	1	j	1	0.3404041193425655
15	34	81	n/a	n/a	n/a	f	1	0.02000000000000001	0	f	1	0.392710012383759
15	35	61	n/a	n/a	n/a	f	1	0.03000000000000001	1	f	1	0.4291861793026328
15	36	81	n/a	n/a	n/a	f	1	0.02000000000000001	2	f	1	0.477606485132128
15	37	101	n/a	n/a	n/a	j	1	0.03000000000000001	2	j	1	0.3964248262345791
15	38	101	n/a	n/a	n/a	f	1	0.04000000000000001	1	f	1	0.4254371533170342
15	39	81	n/a	n/a	n/a	f	1	0.03000000000000001	2	f	1	0.4384238924831152
15	40	101	n/a	n/a	n/a	f	1	0.04000000000000001	2	f	1	0.466475157532841
15	41	101	n/a	n/a	n/a	j	1	0.05000000000000002	2	j	1	0.3943399121053517
15	42	101	n/a	n/a	n/a	f	1	0.06000000000000002	1	f	1	0.3913281471468508
15	43	81	n/a	n/a	n/a	f	1	0.05000000000000002	1	f	1	0.4155040886253119
15	44	81	n/a	n/a	n/a	f	1	0.04000000000000001	1	f	1	0.4762619673274457
15	45	81	n/a	n/a	n/a	j	1	0.03000000000000001	2	j	1	0.3882453930564225
15	46	101	n/a	n/a	n/a	f	1	0.04000000000000001	1	f	1	0.3613470601849258
15	47	81	n/a	n/a	n/a	f	1	0.03000000000000001	1	f	1	0.4371848609298468
15	48	81	n/a	n/a	n/a	f	1	0.02000000000000001	2	f	1	0.4862720086239278
15	49	101	n/a	n/a	n/a	j	1	0.03000000000000001	2	j	1	0.3571039619855583
15	50	101	n/a	n/a	n/a	f	1	0.04000000000000001	1	f	1	0.3922732439823449
15	51	81	n/a	n/a	n/a	f	1	0.03000000000000001	1	f	1	0.3866747939027846
15	52	81	n/a	n/a	n/a	f	1	0.02000000000000001	1	f	1	0.4175259969197214
15	53	81	n/a	n/a	n/a	j	1	0.01000000000000001	2	j	1	0.374031881801784
15	54	101	n/a	n/a	n/a	f	1	0.02000000000000001	1	f	1	0.397137853782624
15	55	81	n/a	n/a	n/a	f	1	0.01000000000000001	1	f	1	0.3970928089693189
15	56	81	n/a	n/a	n/a	f	1	1.040834085586084e-17	2	f	1	0.4369356860406697
15	57	101	n/a	n/a	n/a	j	1	0.01000000000000001	2	j	1	0.3959683859720826
15	58	101	n/a	n/a	n/a	f	1	0.02000000000000001	1	f	1	0.412095183506608
15	59	81	n/a	n/a	n/a	f	1	0.01000000000000001	2	f	1	0.3859090232290328
15	60	101	n/a	n/a	n/a	f	1	0.02000000000000001	1	f	1	0.3635748084634542
15	61	81	n/a	n/a	n/a	j	1	0.01000000000000001	0	j	1	0.3606286160647869
15	62	61	n/a	n/a	n/a	f	1	0.02000000000000001	0	f	1	0.3536052512936294
15	63	61	n/a	n/a	n/a	f	1	0.03000000000000001	1	f	1	0.3525737705640495
15	64	81	n/a	n/a	n/a	f	1	0.02000000000000001	0	f	1	0.3568468042649329
15	65	61	n/a	n/a	n/a	j	1	0.03000000000000001	1	j	1	0.3548231855966151
15	66	81	n/a	n/a	n/a	f	1	0.02000000000000001	0	f	1	0.353072689846158
15	67	61	n/a	n/a	n/a	f	1	0.03000000000000001	0	f	1	0.4228550298139453
15	68	61	n/a	n/a	n/a	f	1	0.04000000000000001	1	f	1	0.423858571331948
15	69	81	n/a	n/a	n/a	j	1	0.03000000000000001	2	j	1	0.3763890638947487
15	70	101	n/a	n/a	n/a	f	1	0.04000000000000001	1	f	1	0.3713642288930714
15	71	81	n/a	n/a	n/a	f	1	0.03000000000000001	1	f	1	0.4562695398926735
16	0	86	j	1	0.02720509748905897	j	6	0.12	0	j	1	0.6034075366333127
16	1	66	n/a	n/a	n/a	f	6	0.13	1	f	1	0.6245848275721073
16	2	86	n/a	n/a	n/a	j	6	0.12	1	j	1	0.579554894939065
16	3	86	n/a	n/a	n/a	j	6	0.11	1	j	1	0.622519014403224
16	4	86	n/a	n/a	n/a	j	6	0.1	1	j	1	0.6812618277035654
16	5	86	n/a	n/a	n/a	f	6	0.09000000000000002	2	f	1	0.5973651902750134
16	6	106	n/a	n/a	n/a	j	6	0.1	1	j	1	0.5202515809796751
16	7	86	n/a	n/a	n/a	j	6	0.09000000000000002	1	j	1	0.6075189206749201
16	8	86	n/a	n/a	n/a	j	6	0.08000000000000003	1	j	1	0.5563653893768787
16	9	86	n/a	n/a	n/a	f	6	0.07000000000000003	1	f	1	0.5704446202144027
16	10	86	n/a	n/a	n/a	j	6	0.06000000000000003	1	j	1	0.5339915463700891
16	11	86	n/a	n/a	n/a	j	6	0.05000000000000003	0	j	1	0.6581897824071348
16	12	66	n/a	n/a	n/a	j	6	0.06000000000000003	2	j	1	0.5852391594089568
16	13	106	n/a	n/a	n/a	f	6	0.07000000000000003	1	f	1	0.606220303568989
16	14	86	n/a	n/a	n/a	j	6	0.06000000000000003	1	j	1	0.5883096540346742
16	15	86	n/a	n/a	n/a	j	6	0.05000000000000003	1	j	1	0.6530968090519309
16	16	86	n/a	n/a	n/a	j	6	0.04000000000000003	2	j	1	0.5570385032333434
16	17	106	n/a	n/a	n/a	f	6	0.05000000000000003	1	f	1	0.6171768666245043
16	18	86	n/a	n/a	n/a	j	6	0.04000000000000003	1	j	1	0.5895643658004701
16	19	86	n/a	n/a	n/a	j	6	0.03000000000000003	1	j	1	0.6455448744818568
16	20	86	n/a	n/a	n/a	j	6	0.02000000000000002	2	j	1	0.6189661356620491
16	21	106	n/a	n/a	n/a	f	6	0.03000000000000003	2	f	1	0.6383792464621365
16	22	106	n/a	n/a	n/a	j	6	0.04000000000000003	2	j	1	0.5739253694191575
16	23	106	n/a	n/a	n/a	j	6	0.05000000000000003	1	j	1	0.6498963101767004
16	24	86	n/a	n/a	n/a	j	6	0.04000000000000003	2	j	1	0.6298251957632601
16	25	106	n/a	n/a	n/a	f	6	0.05000000000000003	1	f	1	0.6529756430536509
16	26	86	n/a	n/a	n/a	j	6	0.04000000000000003	2	j	1	0.5968657005578279
16	27	106	n/a	n/a	n/a	j	6	0.05000000000000003	1	j	1	0.6489475076086819
16	28	86	n/a	n/a	n/a	j	6	0.04000000000000003	2	j	1	0.5816224184818566
16	29	106	n/a	n/a	n/a	f	6	0.05000000000000003	1	f	1	0.6327776601538062
16	30	86	n/a	n/a	n/a	j	6	0.04000000000000003	2	j	1	0.5793119925074279
16	31	106	n/a	n/a	n/a	j	6	0.05000000000000003	1	j	1	0.6716050221584737
16	32	86	n/a	n/a	n/a	j	6	0.04000000000000003	2	j	1	0.5725209820084274
16	33	106	n/a	n/a	n/a	f	6	0.05000000000000003	1	f	1	0.5923215392976999
16	34	86	n/a	n/a	n/a	j	6	0.04000000000000003	1	j	1	0.6224451744928956
16	35	86	n/a	n/a	n/a	j	6	0.03000000000000003	2	j	1	0.595482979901135
16	36	106	n/a	n/a	n/a	j	6	0.04000000000000003	1	j	1	0.5536424280144274
16	37	86	n/a	n/a	n/a	f	6	0.03000000000000003	0	f	1	0.5753816454671323
16	38	66	n/a	n/a	n/a	j	6	0.04000000000000003	1	j	1	0.5785656082443893
16	39	86	n/a	n/a	n/a	j	6	0.03000000000000003	1	j	1	0.6023147599771619
16	40	86	n/a	n/a	n/a	j	6	0.02000000000000002	2	j	1	0.6073746616020799
16	41	106	n/a	n/a	n/a	f	6	0.03000000000000003	1	f	1	0.6102860723622143
16	42	86	n/a	n/a	n/a	j	6	0.02000000000000002	2	j	1	0.6086544618010521
16	43	106	n/a	n/a	n/a	j	6	0.03000000000000003	1	j	1	0.6287435377016664
16	44	86	n/a	n/a	n/a	j	6	0.02000000000000002	2	j	1	0.5835103308781981
16	45	106	n/a	n/a	n/a	f	6	0.03000000000000003	1	f	1	0.5150722237303853
16	46	86	n/a	n/a	n/a	j	6	0.02000000000000002	0	j	1	0.5740391234867275
16	47	66	n/a	n/a	n/a	j	6	0.03000000000000003	1	j	1	0.6025388459675014
16	48	86	n/a	n/a	n/a	j	6	0.02000000000000002	1	j	1	0.6090784007683396
16	49	86	n/a	n/a	n/a	f	6	0.01000000000000002	2	f	1	0.5419585821218789
16	50	106	n/a	n/a	n/a	j	6	0.02000000000000002	0	j	1	0.5799226704984903
16	51	66	n/a	n/a	n/a	j	6	0.03000000000000003	1	j	1	0.600962829310447
16	52	86	n/a	n/a	n/a	j	6	0.02000000000000002	1	j	1	0.5543674295768142
16	53	86	n/a	n/a	n/a	f	6	0.01000000000000002	0	f	1	0.6388368271291256
16	54	66	n/a	n/a	n/a	j	6	0.02000000000000002	2	j	1	0.5987288095057011
16	55	106	n/a	n/a	n/a	j	6	0.03000000000000003	1	j	1	0.6497107120230794
16	56	86	n/a	n/a	n/a	j	6	0.02000000000000002	2	j	1	0.5834199553355575
16	57	106	n/a	n/a	n/a	f	6	0.03000000000000003	1	f	1	1.216524051968008
16	58	86	n/a	n/a	n/a	j	6	0.02000000000000002	2	j	1	0.5835941494442523
16	59	106	n/a	n/a	n/a	j	6	0.03000000000000003	1	j	1	0.6155865956097841
16	60	86	n/a	n/a	n/a	j	6	0.02000000000000002	2	j	1	0.6185661447234452
16	61	106	n/a	n/a	n/a	f	6	0.03000000000000003	2	f	1	0.5687120854854584
16	62	106	n/a	n/a	n/a	j	6	0.04000000000000003	1	j	1	0.611901146825403
16	63	86	n/a	n/a	n/a	j	6	0.03000000000000003	1	j	1	0.6342570288106799
16	64	86	n/a	n/a	n/a	j	6	0.02000000000000002	2	j	1	0.6104212081991136
16	65	106	n/a	n/a	n/a	f	6	0.03000000000000003	1	f	1	0.5767620848491788
16	66	86	n/a	n/a	n/a	j	6	0.02000000000000002	1	j	1	0.5274374512955546
16	67	86	n/a	n/a	n/a	j	6	0.01000000000000002	0	j	1	0.6533924550749362
16	68	66	n/a	n/a	n/a	j	6	0.02000000000000002	2	j	1	0.5772259375080466
16	69	106	n/a	n/a	n/a	f	6	0.03000000000000003	1	f	1	0.5732428473420441
16	70	86	n/a	n/a	n/a	j	6	0.02000000000000002	1	j	1	0.6208409336395562
16	71	86	n/a	n/a	n/a	j	6	0.01000000000000002	2	j	1	0.6736571500077844
17	0	105	f	1	0.0538271707482636	f	5	0.08000000000000002	2	f	1	0.5832534586079419
17	1	105	n/a	n/a	n/a	j	5	0.09000000000000001	1	j	1	0.6191209433600307
17	2	85	n/a	n/a	n/a	f	5	0.08000000000000002	1	f	1	0.639098830986768
17	3	85	n/a	n/a	n/a	f	5	0.07000000000000002	1	f	1	0.5960728456266224
17	4	85	n/a	n/a	n/a	f	5	0.06000000000000002	1	f	1	0.6241161283105612
17	5	85	n/a	n/a	n/a	j	5	0.05000000000000002	1	j	1	0.5959608028642833
17	6	85	n/a	n/a	n/a	f	5	0.04000000000000001	1	f	1	0.5550137446261942
17	7	85	n/a	n/a	n/a	f	5	0.03000000000000001	0	f	1	0.6309518991038203
17	8	65	n/a	n/a	n/a	f	5	0.04000000000000001	2	f	1	0.5618455237708986
17	9	105	n/a	n/a	n/a	j	5	0.05000000000000002	1	j	1	0.6138845668174326
17	10	85	n/a	n/a	n/a	f	5	0.04000000000000001	1	f	1	0.56962382607162
17	11	85	n/a	n/a	n/a	f	5	0.03000000000000001	1	f	1	0.5728593920357525
17	12	85	n/a	n/a	n/a	f	5	0.02000000000000001	1	f	1	0.5849281181581318
17	13	85	n/a	n/a	n/a	j	5	0.01000000000000001	1	j	1	0.5646619973704219
17	14	85	n/a	n/a	n/a	f	5	1.040834085586084e-17	0	f	1	0.5937111019156873
17	15	65	n/a	n/a	n/a	f	5	0.01000000000000001	1	f	1	0.6045992416329682
17	16	85	n/a	n/a	n/a	f	5	1.040834085586084e-17	2	f	1	0.5932811754755676
17	17	105	n/a	n/a	n/a	j	5	0.01000000000000001	2	j	1	0.5286468327976763
17	18	105	n/a	n/a	n/a	f	5	0.02000000000000001	0	f	1	0.5555896405130625
17	19	65	n/a	n/a	n/a	f	5	0.03000000000000001	1	f	1	0.5207162890583277
17	20	85	n/a	n/a	n/a	f	5	0.02000000000000001	0	f	1	0.5892672948539257
17	21	65	n/a	n/a	n/a	j	5	0.03000000000000001	1	j	1	0.5542000778950751
17	22	85	n/a	n/a	n/a	f	5	0.02000000000000001	0	f	1	0.5653944117948413
17	23	65	n/a	n/a	n/a	f	5	0.03000000000000001	1	f	1	0.5701749185100198
17	24	85	n/a	n/a	n/a	f	5	0.02000000000000001	1	f	1	0.6315044169314206
17	25	85	n/a	n/a	n/a	j	5	0.01000000000000001	2	j	1	0.6260228571482003
17	26	105	n/a	n/a	n/a	f	5	0.02000000000000001	2	f	1	0.6311965123750269
17	27	105	n/a	n/a	n/a	f	5	0.03000000000000001	2	f	1	0.6851548277772963
17	28	105	n/a	n/a	n/a	f	5	0.04000000000000001	2	f	1	0.6084945225156844
17	29	105	n/a	n/a	n/a	j	5	0.05000000000000002	1	j	1	0.6052370043471456
17	30	85	n/a	n/a	n/a	f	5	0.04000000000000001	1	f	1	0.5501668099313974
17	31	85	n/a	n/a	n/a	f	5	0.03000000000000001	0	f	1	0.5856642387807369
17	32	65	n/a	n/a	n/a	f	5	0.04000000000000001	1	f	1	0.6061658500693738
17	33	85	n/a	n/a	n/a	j	5	0.03000000000000001	1	j	1	0.6200968301855028
17	34	85	n/a	n/a	n/a	f	5	0.02000000000000001	2	f	1	0.5949971745721996
17	35	105	n/a	n/a	n/a	f	5	0.03000000000000001	1	f	1	0.6493198443204165
17	36	85	n/a	n/a	n/a	f	5	0.02000000000000001	2	f	1	0.5564198428764939
17	37	105	n/a	n/a	n/a	j	5	0.03000000000000001	1	j	1	0.6091605089604855
17	38	85	n/a	n/a	n/a	f	5	0.02000000000000001	2	f	1	0.5488405390642583
17	39	105	n/a	n/a	n/a	f	5	0.03000000000000001	0	f	1	0.5846162224188447
17	40	65	n/a	n/a	n/a	f	5	0.04000000000000001	1	f	1	0.5576882394962013
17	41	85	n/a	n/a	n/a	j	5	0.03000000000000001	1	j	1	0.5930873099714518
17	42	85	n/a	n/a	n/a	f	5	0.02000000000000001	1	f	1	0.5167580018751323
17	43	85	n/a	n/a	n/a	f	5	0.01000000000000001	0	f	1	0.6249203863553703
17	44	65	n/a	n/a	n/a	f	5	0.02000000000000001	2	f	1	0.5666325879283249
17	45	105	n/a	n/a	n/a	j	5	0.03000000000000001	1	j	1	0.5225796829909086
17	46	85	n/a	n/a	n/a	f	5	0.02000000000000001	0	f	1	0.5287705645896494
17	47	65	n/a	n/a	n/a	f	5	0.03000000000000001	0	f	1	0.5790385846048594
17	48	65	n/a	n/a	n/a	f	5	0.04000000000000001	1	f	1	0.5694482061080635
17	49	85	n/a	n/a	n/a	j	5	0.03000000000000001	1	j	1	0.61457250546664
17	50	85	n/a	n/a	n/a	f	5	0.02000000000000001	2	f	1	0.66420789482072
17	51	105	n/a	n/a	n/a	f	5	0.03000000000000001	2	f	1	0.6363610443659127
17	52	105	n/a	n/a	n/a	f	5	0.04000000000000001	2	f	1	0.5438772849738598
17	53	105	n/a	n/a	n/a	j	5	0.05000000000000002	1	j	1	0.5414183232933283
17	54	85	n/a	n/a	n/a	f	5	0.04000000000000001	0	f	1	0.5633824821561575
17	55	65	n/a	n/a	n/a	f	5	0.05000000000000002	1	f	1	0.5853204117156565
17	56	85	n/a	n/a	n/a	f	5	0.04000000000000001	1	f	1	0.5662191971205175
17	57	85	n/a	n/a	n/a	j	5	0.03000000000000001	1	j	1	0.6117078508250415
17	58	85	n/a	n/a	n/a	f	5	0.02000000000000001	2	f	1	0.6261845068074763
17	59	105	n/a	n/a	n/a	f	5	0.03000000000000001	2	f	1	0.6653266153298318
17	60	105	n/a	n/a	n/a	f	5	0.04000000000000001	2	f	1	0.5731801260262728
17	61	105	n/a	n/a	n/a	j	5	0.05000000000000002	1	j	1	0.6270275386050344
17	62	85	n/a	n/a	n/a	f	5	0.04000000000000001	1	f	1	0.5831308667548001
17	63	85	n/a	n/a	n/a	f	5	0.03000000000000001	1	f	1	0.6339442771859467
17	64	85	n/a	n/a	n/a	f	5	0.02000000000000001	2	f	1	0.5200260696001351
17	65	105	n/a	n/a	n/a	j	5	0.03000000000000001	0	j	1	0.6446242965757847
17	66	65	n/a	n/a	n/a	f	5	0.04000000000000001	2	f	1	0.5798704973421991
17	67	105	n/a	n/a	n/a	f	5	0.05000000000000002	1	f	1	0.6508510997518897
17	68	85	n/a	n/a	n/a	f	5	0.04000000000000001	2	f	1	0.5354746212251484
17	69	105	n/a	n/a	n/a	j	5	0.05000000000000002	1	j	1	0.5774001320824027
17	70	85	n/a	n/a	n/a	f	5	0.04000000000000001	1	f	1	0.556886546779424
17	71	85	n/a	n/a	n/a	f	5	0.03000000000000001	1	f	1	0.5836161021143198
18	0	89	f	1	0.02276300080120564	f	9	0.08000000000000003	0	f	1	1.104411933105439
18	1	69	n/a	n/a	n/a	j	9	0.09000000000000002	2	j	1	0.9630192113108933
18	2	109	n/a	n/a	n/a	f	9	0.1	1	f	1	0.9511782773770392
18	3	89	n/a	n/a	n/a	f	9	0.09000000000000002	1	f	1	0.9708414180204272
18	4	89	n/a	n/a	n/a	f	9	0.08000000000000003	1	f	1	1.029956568498164
18	5	89	n/a	n/a	n/a	j	9	0.07000000000000003	1	j	1	0.9570635347627103
18	6	89	n/a	n/a	n/a	f	9	0.06000000000000003	1	f	1	0.9539203406311572
18	7	89	n/a	n/a	n/a	f	9	0.05000000000000003	1	f	1	0.9930567475967109
18	8	89	n/a	n/a	n/a	f	9	0.04000000000000003	1	f	1	1.13268500380218
18	9	89	n/a	n/a	n/a	j	9	0.03000000000000003	2	j	1	0.9528549332171679
18	10	109	n/a	n/a	n/a	f	9	0.04000000000000003	1	f	1	0.9868533215485513
18	11	89	n/a	n/a	n/a	f	9	0.03000000000000003	1	f	1	0.9666088679805398
18	12	89	n/a	n/a	n/a	f	9	0.02000000000000002	0	f	1	1.036523493006825
18	13	69	n/a	n/a	n/a	j	9	0.03000000000000003	2	j	1	0.8992535588331521
18	14	109	n/a	n/a	n/a	f	9	0.04000000000000003	0	f	1	0.9965930907055736
18	15	69	n/a	n/a	n/a	f	9	0.05000000000000003	1	f	1	0.9213634021580219
18	16	89	n/a	n/a	n/a	f	9	0.04000000000000003	0	f	1	0.965342182200402
18	17	69	n/a	n/a	n/a	j	9	0.05000000000000003	1	j	1	0.8810994364321232
18	18	89	n/a	n/a	n/a	f	9	0.04000000000000003	0	f	1	0.9421241665259004
18	19	69	n/a	n/a	n/a	f	9	0.05000000000000003	1	f	1	0.9171334179118276
18	20	89	n/a	n/a	n/a	f	9	0.04000000000000003	0	f	1	0.9241482298821211
18	21	69	n/a	n/a	n/a	j	9	0.05000000000000003	0	j	1	0.9229727750644088
18	22	69	n/a	n/a	n/a	f	9	0.06000000000000003	1	f	1	0.9361428315751255
18	23	89	n/a	n/a	n/a	f	9	0.05000000000000003	0	f	1	0.9579450548626482
18	24	69	n/a	n/a	n/a	f	9	0.06000000000000003	1	f	1	0.9847458843141794
18	25	89	n/a	n/a	n/a	j	9	0.05000000000000003	1	j	1	1.307887379545718
18	26	89	n/a	n/a	n/a	f	9	0.04000000000000003	2	f	1	0.8478474318981171
18	27	109	n/a	n/a	n/a	f	9	0.05000000000000003	0	f	1	0.8426506840623915
18	28	69	n/a	n/a	n/a	f	9	0.06000000000000003	0	f	1	0.8896198458969593
18	29	69	n/a	n/a	n/a	j	9	0.07000000000000003	0	j	1	0.8007072112523019
18	30	69	n/a	n/a	n/a	f	9	0.08000000000000003	0	f	1	0.9180631195195019
18	31	69	n/a	n/a	n/a	f	9	0.09000000000000002	1	f	1	0.7944647273980081
18	32	89	n/a	n/a	n/a	f	9	0.08000000000000003	0	f	1	0.8464630013331771
18	33	69	n/a	n/a	n/a	j	9	0.09000000000000002	0	j	1	0.7866379590705037
18	34	69	n/a	n/a	n/a	f	9	0.1	0	f	1	0.7668864382430911
18	35	69	n/a	n/a	n/a	f	9	0.11	0	f	1	0.7792927199043334
18	36	69	n/a	n/a	n/a	f	9	0.12	0	j	0	0.9444137802347541
18	37	129	n/a	n/a	n/a	j	9	0.13	0	f	0	0.8278227881528437
18	38	129	n/a	n/a	n/a	f	9	0.12	0	f	1	1.202847948297858
18	39	69	n/a	n/a	n/a	f	9	0.13	0	j	0	0.8599620591849089
18	40	129	n/a	n/a	n/a	f	9	0.14	1	f	1	0.8420171979814768
18	41	89	n/a	n/a	n/a	j	9	0.13	1	f	0	0.9340738821774721
18	42	129	n/a	n/a	n/a	f	9	0.14	1	f	1	0.8600407461635768
18	43	89	n/a	n/a	n/a	f	9	0.13	1	f	1	0.875487016979605
18	44	89	n/a	n/a	n/a	f	9	0.12	1	f	1	0.9468881376087666
18	45	89	n/a	n/a	n/a	j	9	0.11	1	j	1	0.8810079209506512
18	46	89	n/a	n/a	n/a	f	9	0.1	0	f	1	0.8466936443001032
18	47	69	n/a	n/a	n/a	f	9	0.11	0	f	1	0.8583484101109207
18	48	69	n/a	n/a	n/a	f	9	0.12	0	f	1	0.965272618457675
18	49	69	n/a	n/a	n/a	j	9	0.13	1	j	1	0.979275728110224
18	50	89	n/a	n/a	n/a	f	9	0.12	1	f	1	0.8965437118895352
18	51	89	n/a	n/a	n/a	f	9	0.11	1	f	1	0.8805705816484988
18	52	89	n/a	n/a	n/a	f	9	0.1	0	f	1	0.9092581830918789
18	53	69	n/a	n/a	n/a	j	9	0.11	1	j	1	0.8524169670417905
18	54	89	n/a	n/a	n/a	f	9	0.1	0	f	1	0.9293164680711925
18	55	69	n/a	n/a	n/a	f	9	0.11	1	f	1	0.9043607865460217
18	56	89	n/a	n/a	n/a	f	9	0.1	1	f	1	0.9610546082258224
18	57	89	n/a	n/a	n/a	j	9	0.09000000000000002	1	j	1	0.8521267380565405
18	58	89	n/a	n/a	n/a	f	9	0.08000000000000003	0	f	1	0.875161720905453
18	59	69	n/a	n/a	n/a	f	9	0.09000000000000002	0	f	1	0.9240153743885458
18	60	69	n/a	n/a	n/a	f	9	0.1	1	f	1	0.9149869224056602
18	61	89	n/a	n/a	n/a	j	9	0.09000000000000002	1	j	1	0.8848917973227799
18	62	89	n/a	n/a	n/a	f	9	0.08000000000000003	0	f	1	0.9047502293251455
18	63	69	n/a	n/a	n/a	f	9	0.09000000000000002	1	f	1	0.8928502802737057
18	64	89	n/a	n/a	n/a	f	9	0.08000000000000003	0	f	1	0.9396825958974659
18	65	69	n/a	n/a	n/a	j	9	0.09000000000000002	1	j	1	0.8884911467321217
18	66	89	n/a	n/a	n/a	f	9	0.08000000000000003	0	f	1	0.9326637927442789
18	67	69	n/a	n/a	n/a	f	9	0.09000000000000002	1	f	1	0.9043268603272736
18	68	89	n/a	n/a	n/a	f	9	0.08000000000000003	0	f	1	0.8697254913859069
18	69	69	n/a	n/a	n/a	j	9	0.09000000000000002	0	j	1	0.8984701121225953
18	70	69	n/a	n/a	n/a	f	9	0.1	1	f	1	0.8562786057591438
18	71	89	n/a	n/a	n/a	f	9	0.09000000000000002	0	f	1	0.8786236541345716
19	0	63	f	1	0.1432575415819883	f	3	0.04000000000000001	2	f	1	0.3849741900339723
19	1	103	n/a	n/a	n/a	f	3	0.05000000000000002	1	f	1	0.4357439805753529
19	2	83	n/a	n/a	n/a	j	3	0.04000000000000001	2	j	1	0.4227173281833529
19	3	103	n/a	n/a	n/a	f	3	0.05000000000000002	1	f	1	0.8913523801602423
19	4	83	n/a	n/a	n/a	f	3	0.04000000000000001	2	f	1	0.4568032412789762
19	5	103	n/a	n/a	n/a	f	3	0.05000000000000002	2	f	1	0.4532078830525279
19	6	103	n/a	n/a	n/a	f	3	0.06000000000000002	2	f	1	0.4275870700366795
19	7	103	n/a	n/a	n/a	f	3	0.07000000000000002	1	f	1	0.4302632757462561
19	8	83	n/a	n/a	n/a	j	3	0.06000000000000002	1	j	1	0.4264851701445878
19	9	83	n/a	n/a	n/a	f	3	0.05000000000000002	1	f	1	0.3834523423574865
19	10	83	n/a	n/a	n/a	f	3	0.04000000000000001	1	f	1	0.347109030932188
19	11	83	n/a	n/a	n/a	f	3	0.03000000000000001	0	f	1	0.4424996394664049
19	12	63	n/a	n/a	n/a	f	3	0.04000000000000001	2	f	1	0.3409033240750432
19	13	103	n/a	n/a	n/a	f	3	0.05000000000000002	1	f	1	0.4103606534190476
19	14	83	n/a	n/a	n/a	j	3	0.04000000000000001	1	j	1	0.4005350703373551
19	15	83	n/a	n/a	n/a	f	3	0.03000000000000001	1	f	1	0.3714953735470772
19	16	83	n/a	n/a	n/a	f	3	0.02000000000000001	1	f	1	0.3919932786375284
19	17	83	n/a	n/a	n/a	f	3	0.01000000000000001	1	f	1	0.4137940765358508
19	18	83	n/a	n/a	n/a	f	3	1.040834085586084e-17	2	f	1	0.394214469473809
19	19	103	n/a	n/a	n/a	f	3	0.01000000000000001	1	f	1	0.3669845685362816
19	20	83	n/a	n/a	n/a	j	3	1.040834085586084e-17	0	j	1	0.3862939039245248
19	21	63	n/a	n/a	n/a	f	3	0.01000000000000001	1	f	1	0.3521484057419002
19	22	83	n/a	n/a	n/a	f	3	1.040834085586084e-17	0	f	1	0.3954110215418041
19	23	63	n/a	n/a	n/a	f	3	0.01000000000000001	1	f	1	0.3981975596398115
19	24	83	n/a	n/a	n/a	f	3	1.040834085586084e-17	2	f	1	0.4260925916023552
19	25	103	n/a	n/a	n/a	f	3	0.01000000000000001	2	f	1	0.4061375111341476
19	26	103	n/a	n/a	n/a	j	3	0.02000000000000001	1	j	1	0.4130642283707857
19	27	83	n/a	n/a	n/a	f	3	0.01000000000000001	2	f	1	0.3641549809835851
19	28	103	n/a	n/a	n/a	f	3	0.02000000000000001	1	f	1	0.4091994529590011
19	29	83	n/a	n/a	n/a	f	3	0.01000000000000001	2	f	1	0.3890091683715582
19	30	103	n/a	n/a	n/a	f	3	0.02000000000000001	1	f	1	0.403638921212405
19	31	83	n/a	n/a	n/a	f	3	0.01000000000000001	2	f	1	0.3841277370229363
19	32	103	n/a	n/a	n/a	j	3	0.02000000000000001	1	j	1	0.4276811517775059
19	33	83	n/a	n/a	n/a	f	3	0.01000000000000001	2	f	1	0.3520628763362765
19	34	103	n/a	n/a	n/a	f	3	0.02000000000000001	0	f	1	0.3969080657698214
19	35	63	n/a	n/a	n/a	f	3	0.03000000000000001	1	f	1	0.4490708401426673
19	36	83	n/a	n/a	n/a	f	3	0.02000000000000001	2	f	1	0.435808127745986
19	37	103	n/a	n/a	n/a	f	3	0.03000000000000001	2	f	1	0.385788997169584
19	38	103	n/a	n/a	n/a	j	3	0.04000000000000001	1	j	1	0.4249299657531083
19	39	83	n/a	n/a	n/a	f	3	0.03000000000000001	2	f	1	0.3808040758594871
19	40	103	n/a	n/a	n/a	f	3	0.04000000000000001	1	f	1	0.3857850064523518
19	41	83	n/a	n/a	n/a	f	3	0.03000000000000001	1	f	1	0.4308291934430599
19	42	83	n/a	n/a	n/a	f	3	0.02000000000000001	2	f	1	0.4223783477209508
19	43	103	n/a	n/a	n/a	f	3	0.03000000000000001	2	f	1	0.4303279928863049
19	44	103	n/a	n/a	n/a	j	3	0.04000000000000001	2	j	1	0.4892048020847142
19	45	103	n/a	n/a	n/a	f	3	0.05000000000000002	2	f	1	0.3906621607020497
19	46	103	n/a	n/a	n/a	f	3	0.06000000000000002	1	f	1	0.410614104475826
19	47	83	n/a	n/a	n/a	f	3	0.05000000000000002	1	f	1	0.4063647338189185
19	48	83	n/a	n/a	n/a	f	3	0.04000000000000001	1	f	1	0.3985399613156915
19	49	83	n/a	n/a	n/a	f	3	0.03000000000000001	1	f	1	0.3891525720246136
19	50	83	n/a	n/a	n/a	j	3	0.02000000000000001	1	j	1	0.3537743138149381
19	51	83	n/a	n/a	n/a	f	3	0.01000000000000001	0	f	1	0.3814874538220465
19	52	63	n/a	n/a	n/a	f	3	0.02000000000000001	1	f	1	0.402618273627013
19	53	83	n/a	n/a	n/a	f	3	0.01000000000000001	2	f	1	0.3925723102875054
19	54	103	n/a	n/a	n/a	f	3	0.02000000000000001	1	f	1	0.3974557374604046
19	55	83	n/a	n/a	n/a	f	3	0.01000000000000001	2	f	1	0.4443616080097854
19	56	103	n/a	n/a	n/a	j	3	0.02000000000000001	2	j	1	0.4010673458687961
19	57	103	n/a	n/a	n/a	f	3	0.03000000000000001	1	f	1	0.417912588454783
19	58	83	n/a	n/a	n/a	f	3	0.02000000000000001	2	f	1	0.3902499102987349
19	59	103	n/a	n/a	n/a	f	3	0.03000000000000001	1	f	1	0.4489436871372163
19	60	83	n/a	n/a	n/a	f	3	0.02000000000000001	2	f	1	0.3582600299268961
19	61	103	n/a	n/a	n/a	f	3	0.03000000000000001	0	f	1	0.4232305022887886
19	62	63	n/a	n/a	n/a	j	3	0.04000000000000001	1	j	1	0.4452702119015157
19	63	83	n/a	n/a	n/a	f	3	0.03000000000000001	2	f	1	0.4031967357732356
19	64	103	n/a	n/a	n/a	f	3	0.04000000000000001	1	f	1	0.352333718445152
19	65	83	n/a	n/a	n/a	f	3	0.03000000000000001	0	f	1	0.4194198958575726
19	66	63	n/a	n/a	n/a	f	3	0.04000000000000001	1	f	1	0.4112450242973864
19	67	83	n/a	n/a	n/a	f	3	0.03000000000000001	1	f	1	0.3818714795634151
19	68	83	n/a	n/a	n/a	j	3	0.02000000000000001	1	j	1	0.4061600337736309
19	69	83	n/a	n/a	n/a	f	3	0.01000000000000001	2	f	1	0.3981804535724223
19	70	103	n/a	n/a	n/a	f	3	0.02000000000000001	1	f	1	0.3798843533731997
19	71	83	n/a	n/a	n/a	f	3	0.01000000000000001	1	f	1	0.43321916135028
20	0	92	j	1	1.471175836864859	j	12	0.06000000000000002	0	j	1	0.970504148863256
20	1	72	n/a	n/a	n/a	j	12	0.07000000000000002	1	j	1	0.9543676576577127
20	2	92	n/a	n/a	n/a	f	12	0.06000000000000002	1	f	1	0.9176853657700121
20	3	92	n/a	n/a	n/a	j	12	0.05000000000000002	0	j	1	0.9783899318426847
20	4	72	n/a	n/a	n/a	j	12	0.06000000000000002	1	j	1	0.9500356088392437
20	5	92	n/a	n/a	n/a	j	12	0.05000000000000002	1	j	1	0.9331917921081185
20	6	92	n/a	n/a	n/a	j	12	0.04000000000000001	0	j	1	0.9707995089702308
20	7	72	n/a	n/a	n/a	j	12	0.05000000000000002	1	j	1	0.9442549818195403
20	8	92	n/a	n/a	n/a	f	12	0.04000000000000001	0	f	1	1.029152594506741
20	9	72	n/a	n/a	n/a	j	12	0.05000000000000002	1	j	1	0.9752607070840895
20	10	92	n/a	n/a	n/a	j	12	0.04000000000000001	1	j	1	1.00388074060902
20	11	92	n/a	n/a	n/a	j	12	0.03000000000000001	1	j	1	0.938873490318656
20	12	92	n/a	n/a	n/a	j	12	0.02000000000000001	0	j	1	0.9319285270757973
20	13	72	n/a	n/a	n/a	j	12	0.03000000000000001	0	j	1	0.9504700964316726
20	14	72	n/a	n/a	n/a	f	12	0.04000000000000001	1	f	1	0.9306276296265423
20	15	92	n/a	n/a	n/a	j	12	0.03000000000000001	0	j	1	0.9325383496470749
20	16	72	n/a	n/a	n/a	j	12	0.04000000000000001	0	j	1	0.9536284012719989
20	17	72	n/a	n/a	n/a	j	12	0.05000000000000002	1	j	1	0.8715846091508865
20	18	92	n/a	n/a	n/a	j	12	0.04000000000000001	0	j	1	0.9634365937672555
20	19	72	n/a	n/a	n/a	j	12	0.05000000000000002	1	j	1	0.9613776230253279
20	20	92	n/a	n/a	n/a	f	12	0.04000000000000001	1	f	1	1.01441764133051
20	21	92	n/a	n/a	n/a	j	12	0.03000000000000001	1	j	1	0.9902599458582699
20	22	92	n/a	n/a	n/a	j	12	0.02000000000000001	1	j	1	0.9540785690769553
20	23	92	n/a	n/a	n/a	j	12	0.01000000000000001	0	j	1	0.948869276791811
20	24	72	n/a	n/a	n/a	j	12	0.02000000000000001	0	j	1	0.9863888984546065
20	25	72	n/a	n/a	n/a	j	12	0.03000000000000001	1	j	1	0.9181737368926406
20	26	92	n/a	n/a	n/a	f	12	0.02000000000000001	0	f	1	0.9901154013350606
20	27	72	n/a	n/a	n/a	j	12	0.03000000000000001	1	j	1	0.9869431271217763
20	28	92	n/a	n/a	n/a	j	12	0.02000000000000001	1	j	1	0.9989864802919328
20	29	92	n/a	n/a	n/a	j	12	0.01000000000000001	2	j	1	0.94085634034127
20	30	112	n/a	n/a	n/a	j	12	0.02000000000000001	0	j	1	0.9527160907164216
20	31	72	n/a	n/a	n/a	j	12	0.03000000000000001	0	j	1	0.964869205839932
20	32	72	n/a	n/a	n/a	f	12	0.04000000000000001	0	j	0	0.9548377827741206
20	33	132	n/a	n/a	n/a	j	12	0.03000000000000001	1	j	1	1.041664361953735
20	34	92	n/a	n/a	n/a	j	12	0.02000000000000001	2	j	1	0.9416434932500124
20	35	112	n/a	n/a	n/a	j	12	0.03000000000000001	0	j	1	0.9780606445856392
20	36	72	n/a	n/a	n/a	j	12	0.04000000000000001	1	j	1	0.93743916740641
