blockLoop_thisRepN	trialLoop_thisRepN	firstKey	readyKey_corr	readyKey_rt	targetKey	blockType	margin	outcome	trialResp_keys	trialResp_corr	trialResp_rt
0	0	f	1	3.286900533363223	f	9	0.1	0	f	1	0.9486973630264401
0	1	n/a	n/a	n/a	j	9	0.11	0	f	0	0.9217579765245318
0	2	n/a	n/a	n/a	f	9	0.1	0	j	0	0.9986919746734202
0	3	n/a	n/a	n/a	f	9	0.09000000000000001	1	f	1	1.06600708514452
0	4	n/a	n/a	n/a	f	9	0.08000000000000002	2	f	1	0.8641033782623708
0	5	n/a	n/a	n/a	j	9	0.09000000000000001	2	f	0	0.8917962764389813
0	6	n/a	n/a	n/a	f	9	0.1	2	j	0	1.032957499381155
0	7	n/a	n/a	n/a	f	9	0.09000000000000001	1	f	1	1.128006276674569
0	8	n/a	n/a	n/a	f	9	0.08000000000000002	2	f	1	0.8668197826482356
0	9	n/a	n/a	n/a	j	9	0.09000000000000001	2	f	0	0.958771551027894
0	10	n/a	n/a	n/a	f	9	0.1	2	j	0	0.9383318061009049
0	11	n/a	n/a	n/a	f	9	0.09000000000000001	1	f	1	1.310560449026525
0	12	n/a	n/a	n/a	f	9	0.08000000000000002	2	f	1	0.8274427535943687
0	13	n/a	n/a	n/a	j	9	0.09000000000000001	0	j	1	0.9354603090323508
0	14	n/a	n/a	n/a	f	9	0.1	1	f	1	0.898366907145828
0	15	n/a	n/a	n/a	f	9	0.09000000000000001	1	f	1	1.019467564299703
0	16	n/a	n/a	n/a	f	9	0.08000000000000002	1	f	1	0.9929615249857306
0	17	n/a	n/a	n/a	j	9	0.07000000000000002	1	j	1	0.9571801400743425
0	18	n/a	n/a	n/a	f	9	0.06000000000000002	1	f	1	0.9202652089297771
0	19	n/a	n/a	n/a	f	9	0.05000000000000002	0	f	1	1.004136187490076
0	20	n/a	n/a	n/a	f	9	0.06000000000000002	1	f	1	0.9368666927330196
0	21	n/a	n/a	n/a	j	9	0.05000000000000002	0	j	1	0.9969779718667269
0	22	n/a	n/a	n/a	f	9	0.06000000000000002	1	f	1	0.9309315434657037
0	23	n/a	n/a	n/a	f	9	0.05000000000000002	0	f	1	0.9858734435401857
0	24	n/a	n/a	n/a	f	9	0.06000000000000002	1	f	1	0.7967868424020708
0	25	n/a	n/a	n/a	j	9	0.05000000000000002	0	j	1	0.9878140985965729
0	26	n/a	n/a	n/a	f	9	0.06000000000000002	1	f	1	0.8546966025605798
0	27	n/a	n/a	n/a	f	9	0.05000000000000002	0	f	1	0.9156358032487333
0	28	n/a	n/a	n/a	f	9	0.06000000000000002	0	f	1	0.9076185901649296
0	29	n/a	n/a	n/a	j	9	0.07000000000000002	0	j	1	0.9127628807909787
0	30	n/a	n/a	n/a	f	9	0.08000000000000002	1	f	1	0.8464088328182697
0	31	n/a	n/a	n/a	f	9	0.07000000000000002	0	f	1	0.9862939612939954
0	32	n/a	n/a	n/a	f	9	0.08000000000000002	1	f	1	0.9344504955224693
0	33	n/a	n/a	n/a	j	9	0.07000000000000002	1	j	1	0.9644022169522941
0	34	n/a	n/a	n/a	f	9	0.06000000000000002	1	f	1	0.8169945189729333
0	35	n/a	n/a	n/a	f	9	0.05000000000000002	0	f	1	1.093309970572591
0	36	n/a	n/a	n/a	f	9	0.06000000000000002	2	f	1	0.8687376300804317
0	37	n/a	n/a	n/a	j	9	0.07000000000000002	0	j	1	0.8991640387102962
0	38	n/a	n/a	n/a	f	9	0.08000000000000002	0	f	1	0.8882408319041133
0	39	n/a	n/a	n/a	f	9	0.09000000000000001	0	f	1	0.9859418664127588
0	40	n/a	n/a	n/a	f	9	0.1	1	f	1	0.9649521694518626
0	41	n/a	n/a	n/a	j	9	0.09000000000000001	1	j	1	0.9318646653555334
0	42	n/a	n/a	n/a	f	9	0.08000000000000002	1	f	1	0.8891252027824521
0	43	n/a	n/a	n/a	f	9	0.07000000000000002	0	f	1	0.9957634587772191
0	44	n/a	n/a	n/a	f	9	0.08000000000000002	1	f	1	0.9218526291660964
0	45	n/a	n/a	n/a	j	9	0.07000000000000002	1	j	1	0.836731499992311
0	46	n/a	n/a	n/a	f	9	0.06000000000000002	0	f	1	0.8887414620257914
0	47	n/a	n/a	n/a	f	9	0.07000000000000002	0	f	1	0.7316478779539466
0	48	n/a	n/a	n/a	f	9	0.08000000000000002	0	f	1	0.7665651338174939
0	49	n/a	n/a	n/a	j	9	0.09000000000000001	0	j	1	0.84453603066504
0	50	n/a	n/a	n/a	f	9	0.1	0	f	1	0.8391665131784976
0	51	n/a	n/a	n/a	f	9	0.11	0	f	1	0.9881493728607893
0	52	n/a	n/a	n/a	f	9	0.12	1	f	1	0.8153118761256337
0	53	n/a	n/a	n/a	j	9	0.11	0	j	1	0.8783345655538142
0	54	n/a	n/a	n/a	f	9	0.12	1	f	1	0.8193574026226997
0	55	n/a	n/a	n/a	f	9	0.11	0	f	1	0.9341394542716444
0	56	n/a	n/a	n/a	f	9	0.12	1	f	1	0.8418261832557619
0	57	n/a	n/a	n/a	j	9	0.11	0	j	1	0.7911182590760291
0	58	n/a	n/a	n/a	f	9	0.12	0	f	1	0.8180727558210492
0	59	n/a	n/a	n/a	f	9	0.13	0	f	1	1.009072641842067
0	60	n/a	n/a	n/a	f	9	0.14	1	f	1	0.9479615278542042
0	61	n/a	n/a	n/a	j	9	0.13	1	j	1	0.9109108909033239
0	62	n/a	n/a	n/a	f	9	0.12	1	f	1	0.890577201731503
0	63	n/a	n/a	n/a	f	9	0.11	1	f	1	0.9129775590263307
0	64	n/a	n/a	n/a	f	9	0.1	1	f	1	0.9508971716277301
0	65	n/a	n/a	n/a	j	9	0.09000000000000002	1	j	1	0.8826751676388085
0	66	n/a	n/a	n/a	f	9	0.08000000000000003	0	f	1	0.9665966089814901
0	67	n/a	n/a	n/a	f	9	0.09000000000000002	1	f	1	0.8575837798416615
0	68	n/a	n/a	n/a	f	9	0.08000000000000003	0	f	1	0.9975723987445235
0	69	n/a	n/a	n/a	j	9	0.09000000000000002	1	j	1	0.8754425421357155
0	70	n/a	n/a	n/a	f	9	0.08000000000000003	0	f	1	0.87042968114838
0	71	n/a	n/a	n/a	f	9	0.09000000000000002	0	f	1	0.8903782037086785
1	0	f	1	0.03692006273195148	f	1	0.1	2	f	1	0.4375415169633925
1	1	n/a	n/a	n/a	j	1	0.11	1	j	1	0.3196020158939064
1	2	n/a	n/a	n/a	f	1	0.1	1	f	1	0.4134528157301247
1	3	n/a	n/a	n/a	f	1	0.09000000000000001	1	f	1	0.4246394517831504
1	4	n/a	n/a	n/a	f	1	0.08000000000000002	1	f	1	0.3074075616896152
1	5	n/a	n/a	n/a	j	1	0.07000000000000002	0	j	1	0.3925517834722996
1	6	n/a	n/a	n/a	f	1	0.08000000000000002	1	f	1	0.4368589948862791
1	7	n/a	n/a	n/a	f	1	0.07000000000000002	1	f	1	0.448075566906482
1	8	n/a	n/a	n/a	f	1	0.06000000000000002	2	f	1	0.324431274086237
1	9	n/a	n/a	n/a	j	1	0.07000000000000002	1	j	1	0.4172785324044526
1	10	n/a	n/a	n/a	f	1	0.06000000000000002	1	f	1	0.3810774842277169
1	11	n/a	n/a	n/a	f	1	0.05000000000000002	1	f	1	0.439908392727375
1	12	n/a	n/a	n/a	f	1	0.04000000000000001	2	f	1	0.309193124063313
1	13	n/a	n/a	n/a	j	1	0.05000000000000002	0	j	1	0.3923895633779466
1	14	n/a	n/a	n/a	f	1	0.06000000000000002	1	f	1	0.3864119346253574
1	15	n/a	n/a	n/a	f	1	0.05000000000000002	1	f	1	0.4301768913865089
1	16	n/a	n/a	n/a	f	1	0.04000000000000001	2	f	1	0.3232817631214857
1	17	n/a	n/a	n/a	j	1	0.05000000000000002	0	j	1	0.4231951502151787
1	18	n/a	n/a	n/a	f	1	0.06000000000000002	1	f	1	0.435294097289443
1	19	n/a	n/a	n/a	f	1	0.05000000000000002	1	j	0	0.4460798879154027
1	20	n/a	n/a	n/a	f	1	0.04000000000000001	1	j	0	0.5306214145384729
1	21	n/a	n/a	n/a	j	1	0.05000000000000002	1	f	0	0.5041607054881752
1	22	n/a	n/a	n/a	f	1	0.06000000000000002	1	j	0	0.4999980041757226
1	23	n/a	n/a	n/a	f	1	0.07000000000000002	1	j	0	0.5586518673226237
1	24	n/a	n/a	n/a	f	1	0.08000000000000002	1	j	0	0.3936893208883703
1	25	n/a	n/a	n/a	j	1	0.09000000000000001	1	f	0	0.4299465329386294
1	26	n/a	n/a	n/a	f	1	0.08000000000000002	1	j	0	0.4009142490103841
1	27	n/a	n/a	n/a	f	1	0.07000000000000002	1	f	1	0.3957864944823086
1	28	n/a	n/a	n/a	f	1	0.06000000000000002	1	f	1	0.3520369324833155
1	29	n/a	n/a	n/a	j	1	0.05000000000000002	1	j	1	0.3717599436640739
1	30	n/a	n/a	n/a	f	1	0.04000000000000001	1	f	1	0.3919687601737678
1	31	n/a	n/a	n/a	f	1	0.03000000000000001	1	f	1	0.4058013819158077
1	32	n/a	n/a	n/a	f	1	0.02000000000000001	2	f	1	0.3148232195526361
1	33	n/a	n/a	n/a	j	1	0.03000000000000001	0	j	1	0.3907639402896166
1	34	n/a	n/a	n/a	f	1	0.04000000000000001	1	f	1	0.3947102529928088
1	35	n/a	n/a	n/a	f	1	0.03000000000000001	1	f	1	0.3998263189569116
1	36	n/a	n/a	n/a	f	1	0.02000000000000001	1	f	1	0.3016696991398931
1	37	n/a	n/a	n/a	j	1	0.01000000000000001	0	j	1	0.3776491926982999
1	38	n/a	n/a	n/a	f	1	0.02000000000000001	1	f	1	0.3565312018617988
1	39	n/a	n/a	n/a	f	1	0.01000000000000001	0	f	1	0.3767571239732206
1	40	n/a	n/a	n/a	f	1	0.02000000000000001	1	f	1	0.325593329500407
1	41	n/a	n/a	n/a	j	1	0.01000000000000001	0	j	1	0.3715649372898042
1	42	n/a	n/a	n/a	f	1	0.02000000000000001	1	f	1	0.3847247306257486
1	43	n/a	n/a	n/a	f	1	0.01000000000000001	1	f	1	0.3574891281314194
1	44	n/a	n/a	n/a	f	1	1.040834085586084e-17	0	f	1	0.2985213729552925
1	45	n/a	n/a	n/a	j	1	0.01000000000000001	0	j	1	0.3996167727746069
1	46	n/a	n/a	n/a	f	1	0.02000000000000001	1	f	1	0.3632361134514213
1	47	n/a	n/a	n/a	f	1	0.01000000000000001	0	f	1	0.3925837143324316
1	48	n/a	n/a	n/a	f	1	0.02000000000000001	1	f	1	0.3163051540032029
1	49	n/a	n/a	n/a	j	1	0.01000000000000001	0	j	1	0.4405669667758048
1	50	n/a	n/a	n/a	f	1	0.02000000000000001	2	f	1	0.357373378239572
1	51	n/a	n/a	n/a	f	1	0.03000000000000001	1	f	1	0.4186059441417456
1	52	n/a	n/a	n/a	f	1	0.02000000000000001	2	f	1	0.3662920682691038
1	53	n/a	n/a	n/a	j	1	0.03000000000000001	1	j	1	0.4409675281494856
1	54	n/a	n/a	n/a	f	1	0.02000000000000001	2	f	1	0.3317508548498154
1	55	n/a	n/a	n/a	f	1	0.03000000000000001	0	f	1	0.4413735065609217
1	56	n/a	n/a	n/a	f	1	0.04000000000000001	2	f	1	0.328344231005758
1	57	n/a	n/a	n/a	j	1	0.05000000000000002	0	j	1	0.3903585323132575
1	58	n/a	n/a	n/a	f	1	0.06000000000000002	1	f	1	0.3472384647466242
1	59	n/a	n/a	n/a	f	1	0.05000000000000002	1	f	1	0.3523197486065328
1	60	n/a	n/a	n/a	f	1	0.04000000000000001	1	f	1	0.3181032608263195
1	61	n/a	n/a	n/a	j	1	0.03000000000000001	0	j	1	0.3621057039126754
1	62	n/a	n/a	n/a	f	1	0.04000000000000001	1	f	1	0.4094874011352658
1	63	n/a	n/a	n/a	f	1	0.03000000000000001	1	f	1	0.3342200797051191
1	64	n/a	n/a	n/a	f	1	0.02000000000000001	0	f	1	0.3401081888005137
1	65	n/a	n/a	n/a	j	1	0.03000000000000001	0	j	1	0.4240952017717063
1	66	n/a	n/a	n/a	f	1	0.04000000000000001	1	f	1	0.3710446353070438
1	67	n/a	n/a	n/a	f	1	0.03000000000000001	1	f	1	0.3452912522479892
1	68	n/a	n/a	n/a	f	1	0.02000000000000001	0	f	1	0.3589183194562793
1	69	n/a	n/a	n/a	j	1	0.03000000000000001	1	j	1	0.4129256713204086
1	70	n/a	n/a	n/a	f	1	0.02000000000000001	2	f	1	0.4579216768033803
1	71	n/a	n/a	n/a	f	1	0.03000000000000001	2	f	1	0.3345037517137825
2	0	f	1	0.03845188906416297	f	3	0.1	1	f	1	0.4231349951587617
2	1	n/a	n/a	n/a	f	3	0.09000000000000001	1	f	1	0.2792867328971624
2	2	n/a	n/a	n/a	j	3	0.08000000000000002	0	j	1	0.4203096837736666
2	3	n/a	n/a	n/a	f	3	0.09000000000000001	1	f	1	0.3826577770523727
2	4	n/a	n/a	n/a	f	3	0.08000000000000002	1	f	1	0.3380013215355575
2	5	n/a	n/a	n/a	f	3	0.07000000000000002	1	f	1	0.417149668559432
2	6	n/a	n/a	n/a	f	3	0.06000000000000002	1	f	1	0.3810472637414932
2	7	n/a	n/a	n/a	f	3	0.05000000000000002	1	f	1	0.3479996738024056
2	8	n/a	n/a	n/a	j	3	0.04000000000000001	0	j	1	0.4066598094068468
2	9	n/a	n/a	n/a	f	3	0.05000000000000002	1	f	1	0.3856310532428324
2	10	n/a	n/a	n/a	f	3	0.04000000000000001	1	f	1	0.3579381559975445
2	11	n/a	n/a	n/a	f	3	0.03000000000000001	1	f	1	0.4368997639976442
2	12	n/a	n/a	n/a	f	3	0.02000000000000001	2	f	1	0.3933842671103776
2	13	n/a	n/a	n/a	f	3	0.03000000000000001	1	f	1	0.3027847134508193
2	14	n/a	n/a	n/a	j	3	0.02000000000000001	0	j	1	0.4359595137648284
2	15	n/a	n/a	n/a	f	3	0.03000000000000001	2	f	1	0.3998993039131165
2	16	n/a	n/a	n/a	f	3	0.04000000000000001	1	f	1	0.3467894368804991
2	17	n/a	n/a	n/a	f	3	0.03000000000000001	0	f	1	0.4277991820126772
2	18	n/a	n/a	n/a	f	3	0.04000000000000001	2	f	1	0.408901812043041
2	19	n/a	n/a	n/a	f	3	0.05000000000000002	1	f	1	0.33550187619403
2	20	n/a	n/a	n/a	j	3	0.04000000000000001	0	j	1	0.3886764599010348
2	21	n/a	n/a	n/a	f	3	0.05000000000000002	1	f	1	0.4036785499192774
2	22	n/a	n/a	n/a	f	3	0.04000000000000001	1	f	1	0.3426441266201437
2	23	n/a	n/a	n/a	f	3	0.03000000000000001	0	f	1	0.4426113972440362
2	24	n/a	n/a	n/a	f	3	0.04000000000000001	2	f	1	0.366259281989187
2	25	n/a	n/a	n/a	f	3	0.05000000000000002	1	f	1	0.3636010377667844
2	26	n/a	n/a	n/a	j	3	0.04000000000000001	1	j	1	0.3855557879433036
2	27	n/a	n/a	n/a	f	3	0.03000000000000001	1	f	1	0.3985710367560387
2	28	n/a	n/a	n/a	f	3	0.02000000000000001	1	f	1	0.3575726612471044
2	29	n/a	n/a	n/a	f	3	0.01000000000000001	0	f	1	0.4104712712578475
2	30	n/a	n/a	n/a	f	3	0.02000000000000001	2	f	1	0.391437339130789
2	31	n/a	n/a	n/a	f	3	0.03000000000000001	1	f	1	0.354994528926909
2	32	n/a	n/a	n/a	j	3	0.02000000000000001	0	j	1	0.424096342176199
2	33	n/a	n/a	n/a	f	3	0.03000000000000001	2	f	1	0.4283842011354864
2	34	n/a	n/a	n/a	f	3	0.04000000000000001	2	f	1	0.3694084635935724
2	35	n/a	n/a	n/a	f	3	0.05000000000000002	1	f	1	0.437352498061955
2	36	n/a	n/a	n/a	f	3	0.04000000000000001	2	f	1	0.3880104734562337
2	37	n/a	n/a	n/a	f	3	0.05000000000000002	1	f	1	0.3615024383179843
2	38	n/a	n/a	n/a	j	3	0.04000000000000001	1	j	1	0.3809534669853747
2	39	n/a	n/a	n/a	f	3	0.03000000000000001	1	f	1	0.3864296106621623
2	40	n/a	n/a	n/a	f	3	0.02000000000000001	1	f	1	0.3364002169109881
2	41	n/a	n/a	n/a	f	3	0.01000000000000001	0	f	1	0.4598255548626184
2	42	n/a	n/a	n/a	f	3	0.02000000000000001	2	f	1	0.3923048893921077
2	43	n/a	n/a	n/a	f	3	0.03000000000000001	1	f	1	0.3721260083839297
2	44	n/a	n/a	n/a	j	3	0.02000000000000001	1	j	1	0.3929657442495227
2	45	n/a	n/a	n/a	f	3	0.01000000000000001	1	f	1	0.3827547095716
2	46	n/a	n/a	n/a	f	3	1.040834085586084e-17	0	f	1	0.3421671595424414
2	47	n/a	n/a	n/a	f	3	0.01000000000000001	0	f	1	0.4112310544587672
2	48	n/a	n/a	n/a	f	3	0.02000000000000001	2	f	1	0.4139893678948283
2	49	n/a	n/a	n/a	f	3	0.03000000000000001	1	f	1	0.3629438886418939
2	50	n/a	n/a	n/a	j	3	0.02000000000000001	1	j	1	0.3692607833072543
2	51	n/a	n/a	n/a	f	3	0.01000000000000001	0	f	1	0.4050242071971297
2	52	n/a	n/a	n/a	f	3	0.02000000000000001	2	f	1	0.3761079586111009
2	53	n/a	n/a	n/a	f	3	0.03000000000000001	1	f	1	0.4538926859386265
2	54	n/a	n/a	n/a	f	3	0.02000000000000001	2	f	1	0.4009977825917304
2	55	n/a	n/a	n/a	f	3	0.03000000000000001	1	f	1	0.3425317979417741
2	56	n/a	n/a	n/a	j	3	0.02000000000000001	0	j	1	0.3779234560206532
2	57	n/a	n/a	n/a	f	3	0.03000000000000001	1	f	1	0.3897723727859557
2	58	n/a	n/a	n/a	f	3	0.02000000000000001	1	f	1	0.3541161450557411
2	59	n/a	n/a	n/a	f	3	0.01000000000000001	0	f	1	0.4067635843530297
2	60	n/a	n/a	n/a	f	3	0.02000000000000001	2	f	1	0.3697645496577024
2	61	n/a	n/a	n/a	f	3	0.03000000000000001	1	f	1	0.4057731572538614
2	62	n/a	n/a	n/a	j	3	0.02000000000000001	2	j	1	0.338499101344496
2	63	n/a	n/a	n/a	f	3	0.03000000000000001	0	f	1	0.3366918712854385
2	64	n/a	n/a	n/a	f	3	0.04000000000000001	0	f	1	0.3328362191095948
2	65	n/a	n/a	n/a	f	3	0.05000000000000002	0	f	1	0.4337032563053071
2	66	n/a	n/a	n/a	f	3	0.06000000000000002	1	f	1	0.4046427477151155
2	67	n/a	n/a	n/a	f	3	0.05000000000000002	1	f	1	0.3527605086565018
2	68	n/a	n/a	n/a	j	3	0.04000000000000001	1	j	1	0.375733055640012
2	69	n/a	n/a	n/a	f	3	0.03000000000000001	1	f	1	0.3555986494757235
2	70	n/a	n/a	n/a	f	3	0.02000000000000001	0	f	1	0.3265675064176321
2	71	n/a	n/a	n/a	f	3	0.03000000000000001	0	f	1	0.4596730279736221
3	0	f	1	0.1409756247885525	f	5	0.1	0	f	1	0.6072609080001712
3	1	n/a	n/a	n/a	j	5	0.11	1	j	1	0.604382568039
3	2	n/a	n/a	n/a	f	5	0.1	1	f	1	0.5762395020574331
3	3	n/a	n/a	n/a	f	5	0.09000000000000001	1	f	1	0.6437590266577899
3	4	n/a	n/a	n/a	f	5	0.08000000000000002	1	f	1	0.5781624815426767
3	5	n/a	n/a	n/a	j	5	0.07000000000000002	1	j	1	0.6409895946271718
3	6	n/a	n/a	n/a	f	5	0.06000000000000002	1	f	1	0.5720736645162106
3	7	n/a	n/a	n/a	f	5	0.05000000000000002	1	f	1	0.6642700461670756
3	8	n/a	n/a	n/a	f	5	0.04000000000000001	2	f	1	0.5949475676752627
3	9	n/a	n/a	n/a	j	5	0.05000000000000002	1	j	1	0.6540128258056939
3	10	n/a	n/a	n/a	f	5	0.04000000000000001	2	f	1	0.5610982850193977
3	11	n/a	n/a	n/a	f	5	0.05000000000000002	1	f	1	0.6439412040635943
3	12	n/a	n/a	n/a	f	5	0.04000000000000001	2	f	1	0.5617950619198382
3	13	n/a	n/a	n/a	j	5	0.05000000000000002	1	j	1	0.5818519219756126
3	14	n/a	n/a	n/a	f	5	0.04000000000000001	1	f	1	0.5877665444277227
3	15	n/a	n/a	n/a	f	5	0.03000000000000001	1	f	1	0.6047489177435637
3	16	n/a	n/a	n/a	f	5	0.02000000000000001	2	f	1	0.5519982734695077
3	17	n/a	n/a	n/a	j	5	0.03000000000000001	0	j	1	0.6038254885934293
3	18	n/a	n/a	n/a	f	5	0.04000000000000001	1	f	1	0.5998318498022854
3	19	n/a	n/a	n/a	f	5	0.03000000000000001	1	f	1	0.5946533475071192
3	20	n/a	n/a	n/a	f	5	0.02000000000000001	1	f	1	0.5743715460412204
3	21	n/a	n/a	n/a	j	5	0.01000000000000001	0	j	1	0.5865831067785621
3	22	n/a	n/a	n/a	f	5	0.02000000000000001	1	f	1	0.5655446578748524
3	23	n/a	n/a	n/a	f	5	0.01000000000000001	0	f	1	0.6573952166363597
3	24	n/a	n/a	n/a	f	5	0.02000000000000001	2	f	1	0.5665259617380798
3	25	n/a	n/a	n/a	j	5	0.03000000000000001	1	j	1	0.5711188749410212
3	26	n/a	n/a	n/a	f	5	0.02000000000000001	1	f	1	0.5526015385985374
3	27	n/a	n/a	n/a	f	5	0.01000000000000001	0	f	1	0.6603243034332991
3	28	n/a	n/a	n/a	f	5	0.02000000000000001	2	f	1	0.5433914796449244
3	29	n/a	n/a	n/a	j	5	0.03000000000000001	0	j	1	0.5869380524381995
3	30	n/a	n/a	n/a	f	5	0.04000000000000001	1	f	1	0.5823109280318022
3	31	n/a	n/a	n/a	f	5	0.03000000000000001	1	f	1	0.5862640831619501
3	32	n/a	n/a	n/a	f	5	0.02000000000000001	1	f	1	0.5763415670953691
3	33	n/a	n/a	n/a	j	5	0.01000000000000001	0	j	1	0.5731787006370723
3	34	n/a	n/a	n/a	f	5	0.02000000000000001	1	f	1	0.5621750964783132
3	35	n/a	n/a	n/a	f	5	0.01000000000000001	0	f	1	0.6712868539616466
3	36	n/a	n/a	n/a	f	5	0.02000000000000001	2	f	1	0.5627852040342987
3	37	n/a	n/a	n/a	j	5	0.03000000000000001	1	j	1	0.5896764090284705
3	38	n/a	n/a	n/a	f	5	0.02000000000000001	1	f	1	0.5383133320137858
3	39	n/a	n/a	n/a	f	5	0.01000000000000001	0	f	1	0.668986405711621
3	40	n/a	n/a	n/a	f	5	0.02000000000000001	2	f	1	0.521828452590853
3	41	n/a	n/a	n/a	j	5	0.03000000000000001	0	j	1	0.6170836398378015
3	42	n/a	n/a	n/a	f	5	0.04000000000000001	1	f	1	0.5428606290370226
3	43	n/a	n/a	n/a	f	5	0.03000000000000001	0	f	1	0.6118435570970178
3	44	n/a	n/a	n/a	f	5	0.04000000000000001	1	f	1	0.5548959993757308
3	45	n/a	n/a	n/a	j	5	0.03000000000000001	0	j	1	0.6018286691978574
3	46	n/a	n/a	n/a	f	5	0.04000000000000001	1	f	1	0.5737796849571168
3	47	n/a	n/a	n/a	f	5	0.03000000000000001	1	f	1	0.6016348032280803
3	48	n/a	n/a	n/a	f	5	0.02000000000000001	1	j	0	1.708344048354775
3	49	n/a	n/a	n/a	j	5	0.01000000000000001	1	f	0	0.560735356528312
3	50	n/a	n/a	n/a	f	5	0.02000000000000001	0	f	1	0.8751112590543926
3	51	n/a	n/a	n/a	f	5	0.03000000000000001	2	f	1	0.558370762038976
3	52	n/a	n/a	n/a	f	5	0.04000000000000001	2	j	0	0.5505126328207552
3	53	n/a	n/a	n/a	j	5	0.03000000000000001	2	f	0	0.6354906433261931
3	54	n/a	n/a	n/a	f	5	0.04000000000000001	2	f	1	0.497362282127142
3	55	n/a	n/a	n/a	f	5	0.05000000000000002	0	f	1	0.6038873549550772
3	56	n/a	n/a	n/a	f	5	0.06000000000000002	1	f	1	0.5684723188169301
3	57	n/a	n/a	n/a	j	5	0.05000000000000002	1	j	1	0.5883153560571373
3	58	n/a	n/a	n/a	f	5	0.04000000000000001	1	f	1	0.5680181593634188
3	59	n/a	n/a	n/a	f	5	0.03000000000000001	1	f	1	0.6302132126875222
3	60	n/a	n/a	n/a	f	5	0.02000000000000001	2	f	1	0.5232165898196399
3	61	n/a	n/a	n/a	j	5	0.03000000000000001	0	j	1	0.6151543888263404
3	62	n/a	n/a	n/a	f	5	0.04000000000000001	1	f	1	0.5081472173333168
3	63	n/a	n/a	n/a	f	5	0.03000000000000001	0	f	1	0.5991119798272848
3	64	n/a	n/a	n/a	f	5	0.04000000000000001	1	f	1	0.5148966037668288
3	65	n/a	n/a	n/a	j	5	0.03000000000000001	0	j	1	0.6222353433258832
3	66	n/a	n/a	n/a	f	5	0.04000000000000001	1	f	1	0.5054918238893151
3	67	n/a	n/a	n/a	f	5	0.03000000000000001	0	f	1	0.5841153068467975
3	68	n/a	n/a	n/a	f	5	0.04000000000000001	1	f	1	0.5638868189416826
3	69	n/a	n/a	n/a	j	5	0.03000000000000001	1	j	1	0.5851721614599228
3	70	n/a	n/a	n/a	f	5	0.02000000000000001	1	f	1	0.5738424062728882
3	71	n/a	n/a	n/a	f	5	0.01000000000000001	0	f	1	0.5779073196463287
4	0	j	1	2.256716457661241	j	10	0.1	0	j	1	0.8362730639055371
4	1	n/a	n/a	n/a	f	10	0.11	0	f	1	0.8490881742909551
4	2	n/a	n/a	n/a	j	10	0.12	0	j	1	0.69491569371894
4	3	n/a	n/a	n/a	j	10	0.13	0	j	1	0.9384392877109349
4	4	n/a	n/a	n/a	j	10	0.14	1	j	1	0.9659080994315445
4	5	n/a	n/a	n/a	f	10	0.13	1	f	1	0.920963411219418
4	6	n/a	n/a	n/a	j	10	0.12	1	j	1	0.8208952159620821
4	7	n/a	n/a	n/a	j	10	0.11	0	j	1	0.9007654283195734
4	8	n/a	n/a	n/a	j	10	0.12	1	j	1	0.9226674358360469
4	9	n/a	n/a	n/a	f	10	0.11	1	f	1	0.9118072357960045
4	10	n/a	n/a	n/a	j	10	0.1	1	j	1	0.8675732943229377
4	11	n/a	n/a	n/a	j	10	0.09000000000000002	0	j	1	0.8726423191837966
4	12	n/a	n/a	n/a	j	10	0.1	0	j	1	0.931161901447922
4	13	n/a	n/a	n/a	f	10	0.11	1	f	1	1.038097228389233
4	14	n/a	n/a	n/a	j	10	0.1	1	j	1	0.8843575255014002
4	15	n/a	n/a	n/a	j	10	0.09000000000000002	0	j	1	0.9143426036462188
4	16	n/a	n/a	n/a	j	10	0.1	1	j	1	0.9902425548061728
4	17	n/a	n/a	n/a	f	10	0.09000000000000002	1	f	1	0.8851632094010711
4	18	n/a	n/a	n/a	j	10	0.08000000000000003	0	j	1	0.8358303080312908
4	19	n/a	n/a	n/a	j	10	0.09000000000000002	0	j	1	0.9591187997721136
4	20	n/a	n/a	n/a	j	10	0.1	1	j	1	1.013252164702863
4	21	n/a	n/a	n/a	f	10	0.09000000000000002	1	f	1	0.8641127869486809
4	22	n/a	n/a	n/a	j	10	0.08000000000000003	0	j	1	0.8758967015892267
4	23	n/a	n/a	n/a	j	10	0.09000000000000002	0	j	1	0.9769903905689716
4	24	n/a	n/a	n/a	j	10	0.1	1	j	1	0.90980613976717
4	25	n/a	n/a	n/a	f	10	0.09000000000000002	1	j	0	1.586756445467472
4	26	n/a	n/a	n/a	j	10	0.08000000000000003	2	j	1	0.855331514030695
4	27	n/a	n/a	n/a	j	10	0.09000000000000002	0	j	1	0.9625955573283136
4	28	n/a	n/a	n/a	j	10	0.1	0	f	0	0.8021842991001904
4	29	n/a	n/a	n/a	f	10	0.09000000000000002	0	j	0	0.8956390991806984
4	30	n/a	n/a	n/a	j	10	0.1	1	j	1	0.8845123331993818
4	31	n/a	n/a	n/a	j	10	0.09000000000000002	0	j	1	0.8974058451130986
4	32	n/a	n/a	n/a	j	10	0.1	0	f	0	0.8223534873686731
4	33	n/a	n/a	n/a	f	10	0.09000000000000002	0	j	0	0.8763129431754351
4	34	n/a	n/a	n/a	j	10	0.1	0	j	1	0.820165938232094
4	35	n/a	n/a	n/a	j	10	0.11	0	j	1	0.8491466189734638
4	36	n/a	n/a	n/a	j	10	0.12	0	j	1	0.8601117352955043
4	37	n/a	n/a	n/a	f	10	0.13	1	f	1	0.8253877749666572
4	38	n/a	n/a	n/a	j	10	0.12	0	j	1	0.8220846406184137
4	39	n/a	n/a	n/a	j	10	0.13	0	j	1	0.9160255310125649
4	40	n/a	n/a	n/a	j	10	0.14	1	j	1	0.838897951412946
4	41	n/a	n/a	n/a	f	10	0.13	0	f	1	0.8939558863639832
4	42	n/a	n/a	n/a	j	10	0.14	1	j	1	0.8568966961465776
4	43	n/a	n/a	n/a	j	10	0.13	1	j	1	0.8239996372722089
4	44	n/a	n/a	n/a	j	10	0.12	0	j	1	0.8937454847618937
4	45	n/a	n/a	n/a	f	10	0.13	1	f	1	0.8336738338693976
4	46	n/a	n/a	n/a	j	10	0.12	0	j	1	0.8545737257227302
4	47	n/a	n/a	n/a	j	10	0.13	0	j	1	0.9214868494309485
4	48	n/a	n/a	n/a	j	10	0.14	1	j	1	0.8945511686615646
4	49	n/a	n/a	n/a	f	10	0.13	1	f	1	0.7864783047698438
4	50	n/a	n/a	n/a	j	10	0.12	0	j	1	0.8211823087185621
4	51	n/a	n/a	n/a	j	10	0.13	0	j	1	0.8892289777286351
4	52	n/a	n/a	n/a	j	10	0.14	1	j	1	0.9163602348417044
4	53	n/a	n/a	n/a	f	10	0.13	1	f	1	0.8553269524127245
4	54	n/a	n/a	n/a	j	10	0.12	0	j	1	0.8052904307842255
4	55	n/a	n/a	n/a	j	10	0.13	0	j	1	0.9372279103845358
4	56	n/a	n/a	n/a	j	10	0.14	1	j	1	0.8691769647412002
4	57	n/a	n/a	n/a	f	10	0.13	1	f	1	0.8401794629171491
4	58	n/a	n/a	n/a	j	10	0.12	0	j	1	0.8050224399194121
4	59	n/a	n/a	n/a	j	10	0.13	0	j	1	0.8987332568503916
4	60	n/a	n/a	n/a	j	10	0.14	1	j	1	0.7931957603432238
4	61	n/a	n/a	n/a	f	10	0.13	0	f	1	0.8219586275517941
4	62	n/a	n/a	n/a	j	10	0.14	0	j	1	0.8189232000149786
4	63	n/a	n/a	n/a	j	10	0.15	0	j	1	0.8325839079916477
4	64	n/a	n/a	n/a	j	10	0.16	1	j	1	0.8479232676327229
4	65	n/a	n/a	n/a	f	10	0.15	1	f	1	0.7957279924303293
4	66	n/a	n/a	n/a	j	10	0.14	0	j	1	0.8718517450615764
4	67	n/a	n/a	n/a	j	10	0.15	1	j	1	0.9156010216102004
4	68	n/a	n/a	n/a	j	10	0.14	1	j	1	0.8567484458908439
4	69	n/a	n/a	n/a	f	10	0.13	0	f	1	0.8685651463456452
4	70	n/a	n/a	n/a	j	10	0.14	1	j	1	0.8174492483958602
4	71	n/a	n/a	n/a	j	10	0.13	0	j	1	0.8944325689226389
5	0	f	1	0.04551231628283858	f	7	0.1	2	f	1	0.6533200400881469
5	1	n/a	n/a	n/a	f	7	0.11	1	f	1	0.6351679135113955
5	2	n/a	n/a	n/a	j	7	0.1	1	j	1	0.5812954124994576
5	3	n/a	n/a	n/a	f	7	0.09000000000000001	1	f	1	0.562235536519438
5	4	n/a	n/a	n/a	f	7	0.08000000000000002	1	f	1	0.6151657924056053
5	5	n/a	n/a	n/a	f	7	0.07000000000000002	1	f	1	0.5909385336562991
5	6	n/a	n/a	n/a	f	7	0.06000000000000002	1	f	1	0.6037727459333837
5	7	n/a	n/a	n/a	f	7	0.05000000000000002	1	f	1	0.6690847645513713
5	8	n/a	n/a	n/a	j	7	0.04000000000000001	2	j	1	0.5461016120389104
5	9	n/a	n/a	n/a	f	7	0.05000000000000002	1	f	1	0.5899398387409747
5	10	n/a	n/a	n/a	f	7	0.04000000000000001	1	f	1	0.5769385597668588
5	11	n/a	n/a	n/a	f	7	0.03000000000000001	1	f	1	0.5798736335709691
5	12	n/a	n/a	n/a	f	7	0.02000000000000001	1	f	1	0.5669322251342237
5	13	n/a	n/a	n/a	f	7	0.01000000000000001	0	f	1	0.5858655176125467
5	14	n/a	n/a	n/a	j	7	0.02000000000000001	1	j	1	0.6047962438315153
5	15	n/a	n/a	n/a	f	7	0.01000000000000001	2	f	1	0.5309002394787967
5	16	n/a	n/a	n/a	f	7	0.02000000000000001	0	f	1	0.6263418802991509
5	17	n/a	n/a	n/a	f	7	0.03000000000000001	2	f	1	0.5817558444105089
5	18	n/a	n/a	n/a	f	7	0.04000000000000001	1	f	1	0.5697047933936119
5	19	n/a	n/a	n/a	f	7	0.03000000000000001	1	f	1	0.5815366045571864
5	20	n/a	n/a	n/a	j	7	0.02000000000000001	1	j	1	0.5684178657829762
5	21	n/a	n/a	n/a	f	7	0.01000000000000001	0	f	1	0.5486212992109358
5	22	n/a	n/a	n/a	f	7	0.02000000000000001	0	f	1	0.5955505478195846
5	23	n/a	n/a	n/a	f	7	0.03000000000000001	1	f	1	0.5366925550624728
5	24	n/a	n/a	n/a	f	7	0.02000000000000001	0	f	1	0.6086986516602337
5	25	n/a	n/a	n/a	f	7	0.03000000000000001	1	f	1	0.685030525084585
5	26	n/a	n/a	n/a	j	7	0.02000000000000001	2	j	1	0.554049261379987
5	27	n/a	n/a	n/a	f	7	0.03000000000000001	0	f	1	0.5573920235037804
5	28	n/a	n/a	n/a	f	7	0.04000000000000001	1	f	1	0.5793715775944293
5	29	n/a	n/a	n/a	f	7	0.03000000000000001	1	f	1	0.5502916825935245
5	30	n/a	n/a	n/a	f	7	0.02000000000000001	0	f	1	0.5872870110906661
5	31	n/a	n/a	n/a	f	7	0.03000000000000001	1	f	1	0.5538114900700748
5	32	n/a	n/a	n/a	j	7	0.02000000000000001	0	j	1	0.5819782195612788
5	33	n/a	n/a	n/a	f	7	0.03000000000000001	1	f	1	0.5722190639935434
5	34	n/a	n/a	n/a	f	7	0.02000000000000001	1	f	1	0.577337980736047
5	35	n/a	n/a	n/a	f	7	0.01000000000000001	0	f	1	0.5411303755827248
5	36	n/a	n/a	n/a	f	7	0.02000000000000001	0	f	1	0.5865597287192941
5	37	n/a	n/a	n/a	f	7	0.03000000000000001	1	f	1	0.5257362774573267
5	38	n/a	n/a	n/a	j	7	0.02000000000000001	0	j	1	0.561972392257303
5	39	n/a	n/a	n/a	f	7	0.03000000000000001	1	f	1	0.557898071128875
5	40	n/a	n/a	n/a	f	7	0.02000000000000001	0	f	1	0.5559092345647514
5	41	n/a	n/a	n/a	f	7	0.03000000000000001	0	f	1	0.6306525468826294
5	42	n/a	n/a	n/a	f	7	0.04000000000000001	2	f	1	0.650584249291569
5	43	n/a	n/a	n/a	f	7	0.05000000000000002	2	f	1	0.6135544241406024
5	44	n/a	n/a	n/a	j	7	0.06000000000000002	1	j	1	0.6518677556887269
5	45	n/a	n/a	n/a	f	7	0.05000000000000002	2	f	1	0.5399264106526971
5	46	n/a	n/a	n/a	f	7	0.06000000000000002	1	f	1	0.5846233498305082
5	47	n/a	n/a	n/a	f	7	0.05000000000000002	1	f	1	0.5557518610730767
5	48	n/a	n/a	n/a	f	7	0.04000000000000001	1	f	1	0.5278710834681988
5	49	n/a	n/a	n/a	f	7	0.03000000000000001	0	f	1	0.5646714060567319
5	50	n/a	n/a	n/a	j	7	0.04000000000000001	1	j	1	0.6316332807764411
5	51	n/a	n/a	n/a	f	7	0.03000000000000001	2	f	1	0.4985534180887043
5	52	n/a	n/a	n/a	f	7	0.04000000000000001	0	f	1	0.6615145835094154
5	53	n/a	n/a	n/a	f	7	0.05000000000000002	2	f	1	0.5854672370478511
5	54	n/a	n/a	n/a	f	7	0.06000000000000002	1	f	1	0.5885633905418217
5	55	n/a	n/a	n/a	f	7	0.05000000000000002	1	f	1	0.5604776288382709
5	56	n/a	n/a	n/a	j	7	0.04000000000000001	1	j	1	0.5586279192939401
5	57	n/a	n/a	n/a	f	7	0.03000000000000001	1	f	1	0.4994186870753765
5	58	n/a	n/a	n/a	f	7	0.02000000000000001	0	f	1	0.5764347934164107
5	59	n/a	n/a	n/a	f	7	0.03000000000000001	1	f	1	0.5884855589829385
5	60	n/a	n/a	n/a	f	7	0.02000000000000001	1	f	1	0.5604257411323488
5	61	n/a	n/a	n/a	f	7	0.01000000000000001	0	f	1	0.5252439146861434
5	62	n/a	n/a	n/a	j	7	0.02000000000000001	0	j	1	0.6574200205504894
5	63	n/a	n/a	n/a	f	7	0.03000000000000001	2	f	1	0.5001499610953033
5	64	n/a	n/a	n/a	f	7	0.04000000000000001	0	f	1	0.5600305967964232
5	65	n/a	n/a	n/a	f	7	0.05000000000000002	1	f	1	0.5237371772527695
5	66	n/a	n/a	n/a	f	7	0.04000000000000001	0	f	1	0.5692423661239445
5	67	n/a	n/a	n/a	f	7	0.05000000000000002	1	f	1	0.5820406558923423
5	68	n/a	n/a	n/a	j	7	0.04000000000000001	1	j	1	0.5629944647662342
5	69	n/a	n/a	n/a	f	7	0.03000000000000001	1	f	1	0.5380253838375211
5	70	n/a	n/a	n/a	f	7	0.02000000000000001	0	f	1	0.617061972618103
5	71	n/a	n/a	n/a	f	7	0.03000000000000001	2	f	1	0.6206533396616578
6	0	j	1	3.827337838243693	j	8	0.1	1	j	1	0.5386121133342385
6	1	n/a	n/a	n/a	j	8	0.09000000000000001	1	j	1	0.5335784410126507
6	2	n/a	n/a	n/a	f	8	0.08000000000000002	1	f	1	0.5375660927966237
6	3	n/a	n/a	n/a	j	8	0.07000000000000002	1	j	1	0.5425832299515605
6	4	n/a	n/a	n/a	j	8	0.06000000000000002	1	j	1	0.4904908742755651
6	5	n/a	n/a	n/a	j	8	0.05000000000000002	0	j	1	0.6064686230383813
6	6	n/a	n/a	n/a	j	8	0.06000000000000002	1	j	1	0.6351003455929458
6	7	n/a	n/a	n/a	j	8	0.05000000000000002	2	j	1	0.464527374599129
6	8	n/a	n/a	n/a	f	8	0.06000000000000002	0	f	1	0.5011087423190475
6	9	n/a	n/a	n/a	j	8	0.07000000000000002	0	j	1	0.5393020482733846
6	10	n/a	n/a	n/a	j	8	0.08000000000000002	1	j	1	0.5373226199299097
6	11	n/a	n/a	n/a	j	8	0.07000000000000002	1	j	1	0.5349400639533997
6	12	n/a	n/a	n/a	j	8	0.06000000000000002	1	j	1	0.5232148794457316
6	13	n/a	n/a	n/a	j	8	0.05000000000000002	0	j	1	0.5203770236112177
6	14	n/a	n/a	n/a	f	8	0.06000000000000002	0	f	1	0.5232220068573952
6	15	n/a	n/a	n/a	j	8	0.07000000000000002	1	j	1	0.5359233636409044
6	16	n/a	n/a	n/a	j	8	0.06000000000000002	1	j	1	0.4701486323028803
6	17	n/a	n/a	n/a	j	8	0.05000000000000002	0	j	1	0.6431278218515217
6	18	n/a	n/a	n/a	j	8	0.06000000000000002	1	j	1	0.5591456554830074
6	19	n/a	n/a	n/a	j	8	0.05000000000000002	1	j	1	0.5150294592604041
6	20	n/a	n/a	n/a	f	8	0.04000000000000001	0	f	1	0.5611427598632872
6	21	n/a	n/a	n/a	j	8	0.05000000000000002	1	j	1	0.5569307366386056
6	22	n/a	n/a	n/a	j	8	0.04000000000000001	1	j	1	0.6010677455924451
6	23	n/a	n/a	n/a	j	8	0.03000000000000001	1	j	1	0.5818516365252435
6	24	n/a	n/a	n/a	j	8	0.02000000000000001	1	j	1	0.5462182168848813
6	25	n/a	n/a	n/a	j	8	0.01000000000000001	0	j	1	0.54958948912099
6	26	n/a	n/a	n/a	f	8	0.02000000000000001	0	f	1	0.533780004363507
6	27	n/a	n/a	n/a	j	8	0.03000000000000001	0	j	1	0.5635104905813932
6	28	n/a	n/a	n/a	j	8	0.04000000000000001	1	j	1	0.6147344405762851
6	29	n/a	n/a	n/a	j	8	0.03000000000000001	1	j	1	0.5783329694531858
6	30	n/a	n/a	n/a	j	8	0.02000000000000001	1	j	1	0.5747022591531277
6	31	n/a	n/a	n/a	j	8	0.01000000000000001	0	j	1	0.5864702081307769
6	32	n/a	n/a	n/a	f	8	0.02000000000000001	1	f	1	0.5447767665609717
6	33	n/a	n/a	n/a	j	8	0.01000000000000001	0	j	1	0.5325070461258292
6	34	n/a	n/a	n/a	j	8	0.02000000000000001	0	j	1	0.6195380403660238
6	35	n/a	n/a	n/a	j	8	0.03000000000000001	2	j	1	0.5665156980976462
6	36	n/a	n/a	n/a	j	8	0.04000000000000001	1	j	1	0.5864465455524623
6	37	n/a	n/a	n/a	j	8	0.03000000000000001	1	j	1	0.45742133166641
6	38	n/a	n/a	n/a	f	8	0.02000000000000001	0	f	1	0.5664364411495626
6	39	n/a	n/a	n/a	j	8	0.03000000000000001	1	j	1	0.4833437777124345
6	40	n/a	n/a	n/a	j	8	0.02000000000000001	0	j	1	0.5994272972457111
6	41	n/a	n/a	n/a	j	8	0.03000000000000001	0	f	0	0.5862561003305018
6	42	n/a	n/a	n/a	j	8	0.02000000000000001	1	j	1	0.5092522534541786
6	43	n/a	n/a	n/a	j	8	0.01000000000000001	0	j	1	0.609280820004642
6	44	n/a	n/a	n/a	f	8	0.02000000000000001	0	j	0	0.5272244838997722
6	45	n/a	n/a	n/a	j	8	0.01000000000000001	0	j	1	0.5952164144255221
6	46	n/a	n/a	n/a	j	8	0.02000000000000001	1	j	1	0.5430969744920731
6	47	n/a	n/a	n/a	j	8	0.01000000000000001	0	j	1	0.5320979319512844
6	48	n/a	n/a	n/a	j	8	0.02000000000000001	0	j	1	0.5521775996312499
6	49	n/a	n/a	n/a	j	8	0.03000000000000001	0	j	1	0.5006919302977622
6	50	n/a	n/a	n/a	f	8	0.04000000000000001	0	f	1	0.5712189436890185
6	51	n/a	n/a	n/a	j	8	0.05000000000000002	1	j	1	0.5623013945296407
6	52	n/a	n/a	n/a	j	8	0.04000000000000001	1	j	1	0.5568637386895716
6	53	n/a	n/a	n/a	j	8	0.03000000000000001	1	j	1	0.592042428907007
6	54	n/a	n/a	n/a	j	8	0.02000000000000001	1	j	1	0.5329842981882393
6	55	n/a	n/a	n/a	j	8	0.01000000000000001	0	j	1	0.5781222828663886
6	56	n/a	n/a	n/a	f	8	0.02000000000000001	1	f	1	0.5245018070563674
6	57	n/a	n/a	n/a	j	8	0.01000000000000001	0	j	1	0.5147717311047018
6	58	n/a	n/a	n/a	j	8	0.02000000000000001	0	j	1	0.5907369703054428
6	59	n/a	n/a	n/a	j	8	0.03000000000000001	0	f	0	0.6216420563869178
6	60	n/a	n/a	n/a	j	8	0.02000000000000001	2	j	1	0.6013593995012343
6	61	n/a	n/a	n/a	j	8	0.03000000000000001	1	j	1	0.5566553329117596
6	62	n/a	n/a	n/a	f	8	0.02000000000000001	0	f	1	0.6496588243171573
6	63	n/a	n/a	n/a	j	8	0.03000000000000001	2	j	1	0.533608946017921
6	64	n/a	n/a	n/a	j	8	0.04000000000000001	0	j	1	0.5695582539774477
6	65	n/a	n/a	n/a	j	8	0.05000000000000002	1	j	1	0.5164232985116541
6	66	n/a	n/a	n/a	j	8	0.04000000000000001	0	j	1	0.5689872042275965
6	67	n/a	n/a	n/a	j	8	0.05000000000000002	1	j	1	0.547348911408335
6	68	n/a	n/a	n/a	f	8	0.04000000000000001	0	f	1	0.5114212711341679
6	69	n/a	n/a	n/a	j	8	0.05000000000000002	0	j	1	0.5914174965582788
6	70	n/a	n/a	n/a	j	8	0.06000000000000002	1	j	1	0.651355151552707
6	71	n/a	n/a	n/a	j	8	0.05000000000000002	2	j	1	0.5993212410248816
7	0	j	1	0.05833198875188828	j	12	0.1	0	j	1	0.9149547065608203
7	1	n/a	n/a	n/a	j	12	0.11	1	j	1	0.9415910351090133
7	2	n/a	n/a	n/a	f	12	0.1	1	f	1	0.8376486566849053
7	3	n/a	n/a	n/a	j	12	0.09000000000000001	0	j	1	1.004618856590241
7	4	n/a	n/a	n/a	j	12	0.1	1	j	1	0.9375415169633925
7	5	n/a	n/a	n/a	j	12	0.09000000000000001	1	j	1	0.950550208799541
7	6	n/a	n/a	n/a	j	12	0.08000000000000002	1	j	1	0.9254180518910289
7	7	n/a	n/a	n/a	j	12	0.07000000000000002	1	j	1	0.9685267158783972
7	8	n/a	n/a	n/a	f	12	0.06000000000000002	1	f	1	0.9423408405855298
7	9	n/a	n/a	n/a	j	12	0.05000000000000002	1	j	1	0.9072525259107351
7	10	n/a	n/a	n/a	j	12	0.04000000000000001	0	j	1	0.9622115320526063
7	11	n/a	n/a	n/a	j	12	0.05000000000000002	1	j	1	0.9341226341202855
7	12	n/a	n/a	n/a	j	12	0.04000000000000001	1	f	0	0.9131685742177069
7	13	n/a	n/a	n/a	j	12	0.05000000000000002	0	j	1	0.9080365425907075
7	14	n/a	n/a	n/a	f	12	0.06000000000000002	0	f	1	0.8545882655307651
7	15	n/a	n/a	n/a	j	12	0.07000000000000002	0	j	1	0.9639540445059538
7	16	n/a	n/a	n/a	j	12	0.08000000000000002	1	j	1	1.016629708465189
7	17	n/a	n/a	n/a	j	12	0.07000000000000002	1	j	1	0.8838124200701714
7	18	n/a	n/a	n/a	j	12	0.06000000000000002	0	j	1	0.9264444010332227
7	19	n/a	n/a	n/a	j	12	0.07000000000000002	1	j	1	0.8816756177693605
7	20	n/a	n/a	n/a	f	12	0.06000000000000002	0	f	1	0.8856105264276266
7	21	n/a	n/a	n/a	j	12	0.07000000000000002	0	j	1	0.9216142878867686
7	22	n/a	n/a	n/a	j	12	0.08000000000000002	1	j	1	1.100575952790678
7	23	n/a	n/a	n/a	j	12	0.07000000000000002	2	j	1	0.9607159127481282
7	24	n/a	n/a	n/a	j	12	0.08000000000000002	1	j	1	0.8905196120031178
7	25	n/a	n/a	n/a	j	12	0.07000000000000002	0	j	1	0.8744076397269964
7	26	n/a	n/a	n/a	f	12	0.08000000000000002	0	f	1	0.8153258459642529
7	27	n/a	n/a	n/a	j	12	0.09000000000000001	0	j	1	0.9102665712125599
7	28	n/a	n/a	n/a	j	12	0.1	1	j	1	0.9552602963522077
7	29	n/a	n/a	n/a	j	12	0.09000000000000001	1	j	1	0.8541794363409281
7	30	n/a	n/a	n/a	j	12	0.08000000000000002	1	f	0	1.038295085541904
7	31	n/a	n/a	n/a	j	12	0.09000000000000001	1	j	1	0.2491981647908688
7	32	n/a	n/a	n/a	f	12	0.08000000000000002	1	j	0	0.6300321761518717
7	33	n/a	n/a	n/a	j	12	0.09000000000000001	0	j	1	0.9225454144179821
7	34	n/a	n/a	n/a	j	12	0.1	1	j	1	0.8710192618891597
7	35	n/a	n/a	n/a	j	12	0.09000000000000001	0	j	1	0.8498853053897619
7	36	n/a	n/a	n/a	j	12	0.1	0	j	1	0.8308559353463352
7	37	n/a	n/a	n/a	j	12	0.11	0	j	1	0.8847857411019504
7	38	n/a	n/a	n/a	f	12	0.12	1	f	1	0.7689283033832908
7	39	n/a	n/a	n/a	j	12	0.11	0	j	1	0.877860164269805
7	40	n/a	n/a	n/a	j	12	0.12	1	j	1	0.8328610225580633
7	41	n/a	n/a	n/a	j	12	0.11	0	j	1	0.851748414337635
7	42	n/a	n/a	n/a	j	12	0.12	0	j	1	0.9586056247353554
7	43	n/a	n/a	n/a	j	12	0.13	1	j	1	0.8745353631675243
7	44	n/a	n/a	n/a	f	12	0.12	1	j	0	0.8704211283475161
7	45	n/a	n/a	n/a	j	12	0.11	0	j	1	0.8903876123949885
7	46	n/a	n/a	n/a	j	12	0.12	1	j	1	0.8623694181442261
7	47	n/a	n/a	n/a	j	12	0.11	0	j	1	0.8354787831194699
7	48	n/a	n/a	n/a	j	12	0.12	0	j	1	0.8393161888234317
7	49	n/a	n/a	n/a	j	12	0.13	0	j	1	0.8741838387213647
7	50	n/a	n/a	n/a	f	12	0.14	1	f	1	0.9768732157535851
7	51	n/a	n/a	n/a	j	12	0.13	1	j	1	0.7890384760685265
7	52	n/a	n/a	n/a	j	12	0.12	0	j	1	0.9042675597593188
7	53	n/a	n/a	n/a	j	12	0.13	1	j	1	0.9410045905970037
7	54	n/a	n/a	n/a	j	12	0.12	1	j	1	0.8810141924768686
7	55	n/a	n/a	n/a	j	12	0.11	1	j	1	0.8438999787904322
7	56	n/a	n/a	n/a	f	12	0.1	0	f	1	0.7541853664442897
7	57	n/a	n/a	n/a	j	12	0.11	0	j	1	0.9007642879150808
7	58	n/a	n/a	n/a	j	12	0.12	1	j	1	0.7769854296930134
7	59	n/a	n/a	n/a	j	12	0.11	0	j	1	0.8351529175415635
7	60	n/a	n/a	n/a	j	12	0.12	0	j	1	0.8143801791593432
7	61	n/a	n/a	n/a	j	12	0.13	0	j	1	0.8666239208541811
7	62	n/a	n/a	n/a	f	12	0.14	1	f	1	0.7962080957368016
7	63	n/a	n/a	n/a	j	12	0.13	0	j	1	0.8246818743646145
7	64	n/a	n/a	n/a	j	12	0.14	0	j	1	0.7964615467935801
7	65	n/a	n/a	n/a	j	12	0.15	0	j	1	0.8406487326137722
7	66	n/a	n/a	n/a	j	12	0.16	0	f	0	0.8373666955158114
7	67	n/a	n/a	n/a	j	12	0.15	1	j	1	0.9769025803543627
7	68	n/a	n/a	n/a	f	12	0.14	1	f	1	0.8691005590371788
7	69	n/a	n/a	n/a	j	12	0.13	1	j	1	0.8501917845569551
7	70	n/a	n/a	n/a	j	12	0.12	0	j	1	0.9102372066117823
7	71	n/a	n/a	n/a	j	12	0.13	1	j	1	0.7950993534177542
8	0	j	1	0.04146023234352469	j	4	0.1	2	j	1	0.4553800369612873
8	1	n/a	n/a	n/a	j	4	0.11	1	j	1	0.353974737226963
8	2	n/a	n/a	n/a	f	4	0.1	1	f	1	0.3591994247399271
8	3	n/a	n/a	n/a	j	4	0.09000000000000001	1	j	1	0.4133134027943015
8	4	n/a	n/a	n/a	j	4	0.08000000000000002	1	j	1	0.3472900674678385
8	5	n/a	n/a	n/a	j	4	0.07000000000000002	1	j	1	0.4141991995275021
8	6	n/a	n/a	n/a	j	4	0.06000000000000002	1	j	1	0.4373653274960816
8	7	n/a	n/a	n/a	j	4	0.05000000000000002	2	j	1	0.3128018821589649
8	8	n/a	n/a	n/a	f	4	0.06000000000000002	0	f	1	0.3981465273536742
8	9	n/a	n/a	n/a	j	4	0.07000000000000002	1	j	1	0.421122495085001
8	10	n/a	n/a	n/a	j	4	0.06000000000000002	1	j	1	0.3532625646330416
8	11	n/a	n/a	n/a	j	4	0.05000000000000002	1	j	1	0.438271080609411
8	12	n/a	n/a	n/a	j	4	0.04000000000000001	2	j	1	0.4429794573225081
8	13	n/a	n/a	n/a	j	4	0.05000000000000002	2	j	1	0.4065169752575457
8	14	n/a	n/a	n/a	f	4	0.06000000000000002	1	f	1	0.3739432166330516
8	15	n/a	n/a	n/a	j	4	0.05000000000000002	1	j	1	0.4446612452156842
8	16	n/a	n/a	n/a	j	4	0.04000000000000001	2	j	1	0.3309656977653503
8	17	n/a	n/a	n/a	j	4	0.05000000000000002	0	j	1	0.4087678166106343
8	18	n/a	n/a	n/a	j	4	0.06000000000000002	1	j	1	0.3488561050035059
8	19	n/a	n/a	n/a	j	4	0.05000000000000002	1	j	1	0.3218089519068599
8	20	n/a	n/a	n/a	f	4	0.04000000000000001	0	f	1	0.3568510808981955
8	21	n/a	n/a	n/a	j	4	0.05000000000000002	1	j	1	0.4500820795074105
8	22	n/a	n/a	n/a	j	4	0.04000000000000001	2	j	1	0.1988121150061488
8	23	n/a	n/a	n/a	j	4	0.05000000000000002	0	j	1	0.6279680738225579
8	24	n/a	n/a	n/a	j	4	0.06000000000000002	2	j	1	0.3456952348351479
8	25	n/a	n/a	n/a	j	4	0.07000000000000002	1	j	1	0.3679744256660342
8	26	n/a	n/a	n/a	f	4	0.06000000000000002	1	f	1	0.3717106222175062
8	27	n/a	n/a	n/a	j	4	0.05000000000000002	1	j	1	0.3919046130031347
8	28	n/a	n/a	n/a	j	4	0.04000000000000001	1	j	1	0.3876877436414361
8	29	n/a	n/a	n/a	j	4	0.03000000000000001	1	j	1	0.3785626436583698
8	30	n/a	n/a	n/a	j	4	0.02000000000000001	1	j	1	0.3984698276035488
8	31	n/a	n/a	n/a	j	4	0.01000000000000001	2	j	1	0.3627272150479257
8	32	n/a	n/a	n/a	f	4	0.02000000000000001	0	f	1	0.3834591847844422
8	33	n/a	n/a	n/a	j	4	0.03000000000000001	1	j	1	0.3714939481578767
8	34	n/a	n/a	n/a	j	4	0.02000000000000001	1	j	1	0.4015656956471503
8	35	n/a	n/a	n/a	j	4	0.01000000000000001	2	j	1	0.4065221073105931
8	36	n/a	n/a	n/a	j	4	0.02000000000000001	2	j	1	0.4116193568333983
8	37	n/a	n/a	n/a	j	4	0.03000000000000001	1	j	1	0.3206235188990831
8	38	n/a	n/a	n/a	f	4	0.02000000000000001	0	f	1	0.4044463159516454
8	39	n/a	n/a	n/a	j	4	0.03000000000000001	1	j	1	0.3685836782678962
8	40	n/a	n/a	n/a	j	4	0.02000000000000001	1	j	1	0.4294270859099925
8	41	n/a	n/a	n/a	j	4	0.01000000000000001	2	j	1	0.409435513895005
8	42	n/a	n/a	n/a	j	4	0.02000000000000001	1	j	1	0.3990733777172863
8	43	n/a	n/a	n/a	j	4	0.01000000000000001	2	j	1	0.330942889675498
8	44	n/a	n/a	n/a	f	4	0.02000000000000001	0	f	1	0.4229291551746428
8	45	n/a	n/a	n/a	j	4	0.03000000000000001	2	j	1	0.4355441275984049
8	46	n/a	n/a	n/a	j	4	0.04000000000000001	2	j	1	0.3830834268592298
8	47	n/a	n/a	n/a	j	4	0.05000000000000002	1	j	1	0.3782875249162316
8	48	n/a	n/a	n/a	j	4	0.04000000000000001	1	j	1	0.3832442215643823
8	49	n/a	n/a	n/a	j	4	0.03000000000000001	1	j	1	0.325202461797744
8	50	n/a	n/a	n/a	f	4	0.02000000000000001	0	f	1	0.3541874196380377
8	51	n/a	n/a	n/a	j	4	0.03000000000000001	0	j	1	0.4381835558451712
8	52	n/a	n/a	n/a	j	4	0.04000000000000001	2	j	1	0.4110688343644142
8	53	n/a	n/a	n/a	j	4	0.05000000000000002	1	j	1	0.3772588944993913
8	54	n/a	n/a	n/a	j	4	0.04000000000000001	1	j	1	0.4130337228998542
8	55	n/a	n/a	n/a	j	4	0.03000000000000001	1	j	1	0.40975396707654
8	56	n/a	n/a	n/a	f	4	0.02000000000000001	2	f	1	0.3670718083158135
8	57	n/a	n/a	n/a	j	4	0.03000000000000001	1	j	1	0.4269575760699809
8	58	n/a	n/a	n/a	j	4	0.02000000000000001	2	j	1	0.3900158456526697
8	59	n/a	n/a	n/a	j	4	0.03000000000000001	1	j	1	0.3780158278532326
8	60	n/a	n/a	n/a	j	4	0.02000000000000001	1	f	0	0.4779637116007507
8	61	n/a	n/a	n/a	j	4	0.01000000000000001	2	j	1	0.4108481691218913
8	62	n/a	n/a	n/a	f	4	0.02000000000000001	2	j	0	0.3905293052084744
8	63	n/a	n/a	n/a	j	4	0.03000000000000001	2	f	0	0.1797756175510585
8	64	n/a	n/a	n/a	j	4	0.02000000000000001	2	f	0	0.3359352233819664
8	65	n/a	n/a	n/a	j	4	0.03000000000000001	0	j	1	0.0997993485070765
8	66	n/a	n/a	n/a	j	4	0.04000000000000001	0	j	1	0.2341162473894656
8	67	n/a	n/a	n/a	j	4	0.05000000000000002	0	j	1	0.4304406060837209
8	68	n/a	n/a	n/a	f	4	0.06000000000000002	0	j	0	0.4257741384208202
8	69	n/a	n/a	n/a	j	4	0.05000000000000002	0	f	0	0.3407334061339498
8	70	n/a	n/a	n/a	j	4	0.04000000000000001	0	j	1	0.6348577281460166
8	71	n/a	n/a	n/a	j	4	0.05000000000000002	2	j	1	0.2867571297101676
9	0	f	1	1.273480162490159	f	11	0.1	0	f	1	0.7950822473503649
9	1	n/a	n/a	n/a	f	11	0.11	0	f	1	0.8240361297503114
9	2	n/a	n/a	n/a	j	11	0.12	0	j	1	0.7548981090076268
9	3	n/a	n/a	n/a	f	11	0.13	0	f	1	0.7747747874818742
9	4	n/a	n/a	n/a	f	11	0.14	0	f	1	0.8117321981117129
9	5	n/a	n/a	n/a	f	11	0.15	0	f	1	0.8653777618892491
9	6	n/a	n/a	n/a	f	11	0.16	1	f	1	0.8946218732744455
9	7	n/a	n/a	n/a	f	11	0.15	1	f	1	0.9302327707409859
9	8	n/a	n/a	n/a	j	11	0.14	1	j	1	0.8374661947600543
9	9	n/a	n/a	n/a	f	11	0.13	0	f	1	0.8520668679848313
9	10	n/a	n/a	n/a	f	11	0.14	1	f	1	0.9474001717753708
9	11	n/a	n/a	n/a	f	11	0.13	1	f	1	1.007349801249802
9	12	n/a	n/a	n/a	f	11	0.12	1	f	1	0.8443259135819972
9	13	n/a	n/a	n/a	f	11	0.11	0	f	1	0.8743044347502291
9	14	n/a	n/a	n/a	j	11	0.12	1	j	1	0.8404198000207543
9	15	n/a	n/a	n/a	f	11	0.11	0	f	1	0.8831700962036848
9	16	n/a	n/a	n/a	f	11	0.12	1	f	1	1.097738667391241
9	17	n/a	n/a	n/a	f	11	0.11	1	f	1	0.9260201770812273
9	18	n/a	n/a	n/a	f	11	0.1	1	f	1	0.9087729481980205
9	19	n/a	n/a	n/a	f	11	0.09000000000000002	1	f	1	0.874782542232424
9	20	n/a	n/a	n/a	j	11	0.08000000000000003	0	j	1	0.8168151928111911
9	21	n/a	n/a	n/a	f	11	0.09000000000000002	0	f	1	0.9158918205648661
9	22	n/a	n/a	n/a	f	11	0.1	1	f	1	1.075852910522372
9	23	n/a	n/a	n/a	f	11	0.09000000000000002	2	f	1	0.9129345091059804
9	24	n/a	n/a	n/a	f	11	0.1	1	f	1	0.963301457464695
9	25	n/a	n/a	n/a	f	11	0.09000000000000002	1	f	1	0.9346138560213149
9	26	n/a	n/a	n/a	j	11	0.08000000000000003	1	j	1	0.8035866911523044
9	27	n/a	n/a	n/a	f	11	0.07000000000000003	0	f	1	0.8246604921296239
9	28	n/a	n/a	n/a	f	11	0.08000000000000003	0	f	1	0.8445799350738525
9	29	n/a	n/a	n/a	f	11	0.09000000000000002	0	f	1	0.9295297209173441
9	30	n/a	n/a	n/a	f	11	0.1	1	f	1	0.9724299786612391
9	31	n/a	n/a	n/a	f	11	0.09000000000000002	1	f	1	0.823258385527879
9	32	n/a	n/a	n/a	j	11	0.08000000000000003	0	j	1	0.7389671732671559
9	33	n/a	n/a	n/a	f	11	0.09000000000000002	0	f	1	0.9622158082202077
9	34	n/a	n/a	n/a	f	11	0.1	1	f	1	0.8322512004524469
9	35	n/a	n/a	n/a	f	11	0.09000000000000002	0	f	1	0.779748875182122
9	36	n/a	n/a	n/a	f	11	0.1	0	f	1	0.8721921504475176
9	37	n/a	n/a	n/a	f	11	0.11	0	f	1	0.9150901278480887
9	38	n/a	n/a	n/a	j	11	0.12	1	j	1	0.7428801297210157
9	39	n/a	n/a	n/a	f	11	0.11	0	f	1	0.7479243511334062
9	40	n/a	n/a	n/a	f	11	0.12	0	f	1	0.9668067251332104
9	41	n/a	n/a	n/a	f	11	0.13	1	f	1	0.8743762788362801
9	42	n/a	n/a	n/a	f	11	0.12	1	f	1	0.909789034165442
9	43	n/a	n/a	n/a	f	11	0.11	1	f	1	0.8757464555092156
9	44	n/a	n/a	n/a	j	11	0.1	0	j	1	0.7118316399864852
9	45	n/a	n/a	n/a	f	11	0.11	0	f	1	0.8754174532368779
9	46	n/a	n/a	n/a	f	11	0.12	1	f	1	0.9984627570956945
9	47	n/a	n/a	n/a	f	11	0.11	1	f	1	0.8983999788761139
9	48	n/a	n/a	n/a	f	11	0.1	1	f	1	0.9581412021070719
9	49	n/a	n/a	n/a	f	11	0.09000000000000002	1	f	1	0.9323900993913412
9	50	n/a	n/a	n/a	j	11	0.08000000000000003	1	j	1	0.752034024335444
9	51	n/a	n/a	n/a	f	11	0.07000000000000003	0	f	1	0.8912574429996312
9	52	n/a	n/a	n/a	f	11	0.08000000000000003	0	f	1	0.8244284233078361
9	53	n/a	n/a	n/a	f	11	0.09000000000000002	0	f	1	0.9331783927045763
9	54	n/a	n/a	n/a	f	11	0.1	1	f	1	0.9211706765927374
9	55	n/a	n/a	n/a	f	11	0.09000000000000002	1	f	1	0.8626605025492609
9	56	n/a	n/a	n/a	j	11	0.08000000000000003	0	j	1	0.8979575079865754
9	57	n/a	n/a	n/a	f	11	0.09000000000000002	0	j	0	0.9490617173723876
9	58	n/a	n/a	n/a	f	11	0.08000000000000003	0	j	0	1.136649562511593
9	59	n/a	n/a	n/a	f	11	0.07000000000000003	2	f	1	0.8685520319268107
9	60	n/a	n/a	n/a	f	11	0.08000000000000003	0	f	1	0.9786376808770001
9	61	n/a	n/a	n/a	f	11	0.09000000000000002	1	f	1	0.8613690133206546
9	62	n/a	n/a	n/a	j	11	0.08000000000000003	0	j	1	0.8646065746434033
9	63	n/a	n/a	n/a	f	11	0.09000000000000002	0	f	1	0.8057186468504369
9	64	n/a	n/a	n/a	f	11	0.1	0	f	1	0.9637598935514688
9	65	n/a	n/a	n/a	f	11	0.11	1	f	1	0.8312462330795825
9	66	n/a	n/a	n/a	f	11	0.1	0	f	1	0.8795208549126983
9	67	n/a	n/a	n/a	f	11	0.11	1	f	1	0.9244538536295295
9	68	n/a	n/a	n/a	j	11	0.1	1	j	1	0.7933434410952032
9	69	n/a	n/a	n/a	f	11	0.09000000000000002	0	f	1	0.8553614490665495
9	70	n/a	n/a	n/a	f	11	0.1	0	f	1	0.9629550646059215
9	71	n/a	n/a	n/a	f	11	0.11	1	f	1	0.9592573568224907
10	0	j	1	0.02729746839031577	j	6	0.1	2	j	1	0.6582995448261499
10	1	n/a	n/a	n/a	f	6	0.11	1	f	1	0.627901075873524
10	2	n/a	n/a	n/a	j	6	0.1	1	j	1	0.568356569390744
10	3	n/a	n/a	n/a	j	6	0.09000000000000001	1	j	1	0.6212038621306419
10	4	n/a	n/a	n/a	j	6	0.08000000000000002	1	j	1	0.560282907448709
10	5	n/a	n/a	n/a	f	6	0.07000000000000002	1	f	1	0.6450419635511935
10	6	n/a	n/a	n/a	j	6	0.06000000000000002	2	j	1	0.5377670861780643
10	7	n/a	n/a	n/a	j	6	0.07000000000000002	1	j	1	0.6940250508487225
10	8	n/a	n/a	n/a	j	6	0.06000000000000002	2	j	1	0.618960433639586
10	9	n/a	n/a	n/a	f	6	0.07000000000000002	1	f	1	0.6068691839464009
10	10	n/a	n/a	n/a	j	6	0.06000000000000002	1	j	1	0.5878905616700649
10	11	n/a	n/a	n/a	j	6	0.05000000000000002	1	j	1	0.5130018489435315
10	12	n/a	n/a	n/a	j	6	0.04000000000000001	0	j	1	0.5980120752938092
10	13	n/a	n/a	n/a	f	6	0.05000000000000002	1	f	1	0.5418345648795366
10	14	n/a	n/a	n/a	j	6	0.04000000000000001	0	j	1	0.611888887360692
10	15	n/a	n/a	n/a	j	6	0.05000000000000002	1	j	1	0.5187528259120882
10	16	n/a	n/a	n/a	j	6	0.04000000000000001	0	j	1	0.5334224924445152
10	17	n/a	n/a	n/a	f	6	0.05000000000000002	1	f	1	0.544752533081919
10	18	n/a	n/a	n/a	j	6	0.04000000000000001	0	j	1	0.5663791368715465
10	19	n/a	n/a	n/a	j	6	0.05000000000000002	1	j	1	0.5066649978980422
10	20	n/a	n/a	n/a	j	6	0.04000000000000001	0	j	1	0.5176258375868201
10	21	n/a	n/a	n/a	f	6	0.05000000000000002	0	f	1	0.5025219679810107
10	22	n/a	n/a	n/a	j	6	0.06000000000000002	0	j	1	0.5385297206230462
10	23	n/a	n/a	n/a	j	6	0.07000000000000002	1	j	1	0.6466419282369316
10	24	n/a	n/a	n/a	j	6	0.06000000000000002	2	j	1	0.5463559185154736
10	25	n/a	n/a	n/a	f	6	0.07000000000000002	1	f	1	0.5989012927748263
10	26	n/a	n/a	n/a	j	6	0.06000000000000002	1	j	1	0.5575485420413315
10	27	n/a	n/a	n/a	j	6	0.05000000000000002	1	j	1	0.5605203933082521
10	28	n/a	n/a	n/a	j	6	0.04000000000000001	1	j	1	0.6054570986889303
10	29	n/a	n/a	n/a	f	6	0.03000000000000001	1	f	1	0.5858241780661047
10	30	n/a	n/a	n/a	j	6	0.02000000000000001	1	j	1	0.575259908568114
10	31	n/a	n/a	n/a	j	6	0.01000000000000001	1	j	1	0.5782346110790968
10	32	n/a	n/a	n/a	j	6	1.040834085586084e-17	0	j	1	0.5598789248615503
10	33	n/a	n/a	n/a	f	6	0.01000000000000001	0	f	1	0.6111313849687576
10	34	n/a	n/a	n/a	j	6	0.02000000000000001	2	j	1	0.5820817099884152
10	35	n/a	n/a	n/a	j	6	0.03000000000000001	1	j	1	0.5941641214303672
10	36	n/a	n/a	n/a	j	6	0.02000000000000001	1	j	1	0.5591673231683671
10	37	n/a	n/a	n/a	f	6	0.01000000000000001	0	f	1	0.6610684068873525
10	38	n/a	n/a	n/a	j	6	0.02000000000000001	2	j	1	0.6899766735732555
10	39	n/a	n/a	n/a	j	6	0.03000000000000001	2	j	1	0.6526443604379892
10	40	n/a	n/a	n/a	j	6	0.04000000000000001	2	j	1	0.4978386797010899
10	41	n/a	n/a	n/a	f	6	0.05000000000000002	0	f	1	0.5439990214072168
10	42	n/a	n/a	n/a	j	6	0.06000000000000002	1	j	1	0.4769792719744146
10	43	n/a	n/a	n/a	j	6	0.05000000000000002	0	j	1	0.5297490181401372
10	44	n/a	n/a	n/a	j	6	0.06000000000000002	1	j	1	0.564499206840992
10	45	n/a	n/a	n/a	f	6	0.05000000000000002	1	f	1	0.5210068030282855
10	46	n/a	n/a	n/a	j	6	0.04000000000000001	0	j	1	0.5807217974215746
10	47	n/a	n/a	n/a	j	6	0.05000000000000002	1	j	1	0.6083753518760204
10	48	n/a	n/a	n/a	j	6	0.04000000000000001	1	j	1	0.5786052369512618
10	49	n/a	n/a	n/a	f	6	0.03000000000000001	1	f	1	0.5656373146921396
10	50	n/a	n/a	n/a	j	6	0.02000000000000001	1	j	1	0.506520168390125
10	51	n/a	n/a	n/a	j	6	0.01000000000000001	0	j	1	0.5424917135387659
10	52	n/a	n/a	n/a	j	6	0.02000000000000001	0	j	1	0.5855080056935549
10	53	n/a	n/a	n/a	f	6	0.03000000000000001	1	f	1	0.5276122158393264
10	54	n/a	n/a	n/a	j	6	0.02000000000000001	0	j	1	0.5804010629653931
10	55	n/a	n/a	n/a	j	6	0.03000000000000001	1	j	1	0.6337244673632085
10	56	n/a	n/a	n/a	j	6	0.02000000000000001	2	j	1	0.5514169605448842
10	57	n/a	n/a	n/a	f	6	0.03000000000000001	2	j	0	0.619058792013675
10	58	n/a	n/a	n/a	j	6	0.04000000000000001	2	f	0	0.4863216155208647
10	59	n/a	n/a	n/a	j	6	0.03000000000000001	0	j	1	0.5769890220835805
10	60	n/a	n/a	n/a	j	6	0.04000000000000001	1	j	1	0.6442009271122515
10	61	n/a	n/a	n/a	f	6	0.03000000000000001	2	f	1	0.6002723244018853
10	62	n/a	n/a	n/a	j	6	0.04000000000000001	1	j	1	0.5071667684242129
10	63	n/a	n/a	n/a	j	6	0.03000000000000001	1	f	0	0.6483345488086343
10	64	n/a	n/a	n/a	j	6	0.04000000000000001	2	j	1	0.5727795651182532
10	65	n/a	n/a	n/a	f	6	0.05000000000000002	1	f	1	0.6082165529951453
10	66	n/a	n/a	n/a	j	6	0.04000000000000001	1	j	1	0.5560982534661889
10	67	n/a	n/a	n/a	j	6	0.03000000000000001	1	j	1	0.5611316412687302
10	68	n/a	n/a	n/a	j	6	0.02000000000000001	0	j	1	0.5180805674754083
10	69	n/a	n/a	n/a	f	6	0.03000000000000001	0	f	1	0.5698347976431251
10	70	n/a	n/a	n/a	j	6	0.04000000000000001	1	j	1	0.5665807002224028
10	71	n/a	n/a	n/a	j	6	0.03000000000000001	1	j	1	0.5628704479895532
11	0	j	1	0.03366254409775138	j	2	0.1	2	j	1	0.355226312763989
11	1	n/a	n/a	n/a	f	2	0.11	1	f	1	0.4010773245245218
11	2	n/a	n/a	n/a	j	2	0.1	1	j	1	0.4290852546691895
11	3	n/a	n/a	n/a	j	2	0.09000000000000001	1	j	1	0.3855221467092633
11	4	n/a	n/a	n/a	j	2	0.08000000000000002	1	j	1	0.3281546412035823
11	5	n/a	n/a	n/a	f	2	0.07000000000000002	1	f	1	0.4449483375065029
11	6	n/a	n/a	n/a	j	2	0.06000000000000002	2	j	1	0.4499164381995797
11	7	n/a	n/a	n/a	j	2	0.07000000000000002	1	j	1	0.3530655624344945
11	8	n/a	n/a	n/a	j	2	0.06000000000000002	1	j	1	0.4059647428803146
11	9	n/a	n/a	n/a	f	2	0.05000000000000002	1	f	1	0.3876033551059663
11	10	n/a	n/a	n/a	j	2	0.04000000000000001	1	j	1	0.4649957893416286
11	11	n/a	n/a	n/a	j	2	0.03000000000000001	2	j	1	0.2838103673420846
11	12	n/a	n/a	n/a	j	2	0.04000000000000001	0	j	1	0.4020252721384168
11	13	n/a	n/a	n/a	f	2	0.05000000000000002	1	f	1	0.4319963804446161
11	14	n/a	n/a	n/a	j	2	0.04000000000000001	2	j	1	0.4078934234566987
11	15	n/a	n/a	n/a	j	2	0.05000000000000002	1	j	1	0.3957323259674013
11	16	n/a	n/a	n/a	j	2	0.04000000000000001	1	j	1	0.376941867172718
11	17	n/a	n/a	n/a	f	2	0.03000000000000001	1	f	1	0.4273105263710022
11	18	n/a	n/a	n/a	j	2	0.02000000000000001	2	j	1	0.4168223771266639
11	19	n/a	n/a	n/a	j	2	0.03000000000000001	1	j	1	0.4377045924775302
11	20	n/a	n/a	n/a	j	2	0.02000000000000001	2	j	1	0.3847746220417321
11	21	n/a	n/a	n/a	f	2	0.03000000000000001	1	f	1	0.4765781401656568
11	22	n/a	n/a	n/a	j	2	0.02000000000000001	2	j	1	0.4241764545440674
11	23	n/a	n/a	n/a	j	2	0.03000000000000001	2	j	1	0.4271865086629987
11	24	n/a	n/a	n/a	j	2	0.04000000000000001	2	j	1	0.3686751937493682
11	25	n/a	n/a	n/a	f	2	0.05000000000000002	1	f	1	0.428507077973336
11	26	n/a	n/a	n/a	j	2	0.04000000000000001	2	j	1	0.3946064775809646
11	27	n/a	n/a	n/a	j	2	0.05000000000000002	1	j	1	0.4143765298649669
11	28	n/a	n/a	n/a	j	2	0.04000000000000001	1	j	1	0.408531186170876
11	29	n/a	n/a	n/a	f	2	0.03000000000000001	1	f	1	0.4153221966698766
11	30	n/a	n/a	n/a	j	2	0.02000000000000001	2	j	1	0.3339344128035009
11	31	n/a	n/a	n/a	j	2	0.03000000000000001	0	j	1	0.4900803347118199
11	32	n/a	n/a	n/a	j	2	0.04000000000000001	2	j	1	0.3913435423746705
11	33	n/a	n/a	n/a	f	2	0.05000000000000002	1	f	1	0.3880073372274637
11	34	n/a	n/a	n/a	j	2	0.04000000000000001	1	j	1	0.392918988596648
11	35	n/a	n/a	n/a	j	2	0.03000000000000001	1	j	1	0.39626374701038
11	36	n/a	n/a	n/a	j	2	0.02000000000000001	1	j	1	0.4424488921649754
11	37	n/a	n/a	n/a	f	2	0.01000000000000001	2	f	1	0.3662324827164412
11	38	n/a	n/a	n/a	j	2	0.02000000000000001	1	j	1	0.4589066873304546
11	39	n/a	n/a	n/a	j	2	0.01000000000000001	2	j	1	0.3603956918232143
11	40	n/a	n/a	n/a	j	2	0.02000000000000001	0	j	1	0.4383013010956347
11	41	n/a	n/a	n/a	f	2	0.03000000000000001	2	f	1	0.4267297834157944
11	42	n/a	n/a	n/a	j	2	0.04000000000000001	2	j	1	0.3757478804327548
11	43	n/a	n/a	n/a	j	2	0.05000000000000002	1	j	1	0.5010896408930421
11	44	n/a	n/a	n/a	j	2	0.04000000000000001	2	j	1	0.368972550611943
11	45	n/a	n/a	n/a	f	2	0.05000000000000002	1	f	1	0.4140386898070574
11	46	n/a	n/a	n/a	j	2	0.04000000000000001	1	j	1	0.4490648531354964
11	47	n/a	n/a	n/a	j	2	0.03000000000000001	2	j	1	0.3889889260753989
11	48	n/a	n/a	n/a	j	2	0.04000000000000001	1	j	1	0.4206726122647524
11	49	n/a	n/a	n/a	f	2	0.03000000000000001	2	f	1	0.3786695548333228
11	50	n/a	n/a	n/a	j	2	0.04000000000000001	1	j	1	0.425168592017144
11	51	n/a	n/a	n/a	j	2	0.03000000000000001	2	j	1	0.4068867466412485
11	52	n/a	n/a	n/a	j	2	0.04000000000000001	1	j	1	0.4209890700876713
11	53	n/a	n/a	n/a	f	2	0.03000000000000001	2	f	1	0.4009783957153559
11	54	n/a	n/a	n/a	j	2	0.04000000000000001	1	j	1	0.4117157193832099
11	55	n/a	n/a	n/a	j	2	0.03000000000000001	1	j	1	0.4575416427105665
11	56	n/a	n/a	n/a	j	2	0.02000000000000001	2	j	1	0.332682266831398
11	57	n/a	n/a	n/a	f	2	0.03000000000000001	0	f	1	0.4589434647932649
11	58	n/a	n/a	n/a	j	2	0.04000000000000001	2	j	1	0.3904004413634539
11	59	n/a	n/a	n/a	j	2	0.05000000000000002	1	j	1	0.3876449791714549
11	60	n/a	n/a	n/a	j	2	0.04000000000000001	1	j	1	0.3586377836763859
11	61	n/a	n/a	n/a	f	2	0.03000000000000001	1	f	1	0.3547784253023565
11	62	n/a	n/a	n/a	j	2	0.02000000000000001	0	j	1	0.4466532175429165
11	63	n/a	n/a	n/a	j	2	0.03000000000000001	2	j	1	0.387290888465941
11	64	n/a	n/a	n/a	j	2	0.04000000000000001	1	j	1	0.3343326933681965
11	65	n/a	n/a	n/a	f	2	0.03000000000000001	0	f	1	0.4446059362962842
11	66	n/a	n/a	n/a	j	2	0.04000000000000001	2	j	1	0.3705288949422538
11	67	n/a	n/a	n/a	j	2	0.05000000000000002	1	j	1	0.4615563787519932
11	68	n/a	n/a	n/a	j	2	0.04000000000000001	2	j	1	0.3803567592985928
11	69	n/a	n/a	n/a	f	2	0.05000000000000002	1	f	1	0.3785167429596186
11	70	n/a	n/a	n/a	j	2	0.04000000000000001	1	j	1	0.3973807566799223
11	71	n/a	n/a	n/a	j	2	0.03000000000000001	1	j	1	0.5125277326442301
12	0	f	1	3.455203847493976	f	9	0.1	0	f	1	0.8102993005886674
12	1	n/a	n/a	n/a	j	9	0.11	0	j	1	0.7651080032810569
12	2	n/a	n/a	n/a	f	9	0.12	0	f	1	0.7155122426338494
12	3	n/a	n/a	n/a	f	9	0.13	0	f	1	0.77027766732499
12	4	n/a	n/a	n/a	f	9	0.14	0	f	1	0.8963914704509079
12	5	n/a	n/a	n/a	j	9	0.15	1	j	1	0.868592516053468
12	6	n/a	n/a	n/a	f	9	0.14	1	f	1	0.8973636510781944
12	7	n/a	n/a	n/a	f	9	0.13	1	f	1	0.9178421692922711
12	8	n/a	n/a	n/a	f	9	0.12	1	f	1	0.8840325148776174
12	9	n/a	n/a	n/a	j	9	0.11	1	j	1	0.8162296037189662
12	10	n/a	n/a	n/a	f	9	0.1	0	f	1	0.8466922189109027
12	11	n/a	n/a	n/a	f	9	0.11	0	f	1	0.9239854398183525
12	12	n/a	n/a	n/a	f	9	0.12	1	f	1	0.8866733680479228
12	13	n/a	n/a	n/a	j	9	0.11	1	j	1	0.8498337031342089
12	14	n/a	n/a	n/a	f	9	0.1	0	f	1	0.9108148128725588
12	15	n/a	n/a	n/a	f	9	0.11	1	f	1	1.027779567521065
12	16	n/a	n/a	n/a	f	9	0.1	1	f	1	0.8703470029868186
12	17	n/a	n/a	n/a	j	9	0.09000000000000002	0	j	1	0.8603885644115508
12	18	n/a	n/a	n/a	f	9	0.1	0	f	1	0.8815547367557883
12	19	n/a	n/a	n/a	f	9	0.11	1	f	1	1.022479899227619
12	20	n/a	n/a	n/a	f	9	0.1	1	f	1	0.925434872508049
12	21	n/a	n/a	n/a	j	9	0.09000000000000002	1	j	1	0.8970104157924652
12	22	n/a	n/a	n/a	f	9	0.08000000000000003	0	f	1	0.9464767426252365
12	23	n/a	n/a	n/a	f	9	0.09000000000000002	1	f	1	0.9142747502774
12	24	n/a	n/a	n/a	f	9	0.08000000000000003	1	f	1	0.9531842200085521
12	25	n/a	n/a	n/a	j	9	0.07000000000000003	1	j	1	0.9417270268313587
12	26	n/a	n/a	n/a	f	9	0.06000000000000003	1	f	1	0.9641094226390123
12	27	n/a	n/a	n/a	f	9	0.05000000000000003	1	f	1	0.9140597870573401
12	28	n/a	n/a	n/a	f	9	0.04000000000000003	0	f	1	0.876987767405808
12	29	n/a	n/a	n/a	j	9	0.05000000000000003	0	j	1	1.009182974696159
12	30	n/a	n/a	n/a	f	9	0.06000000000000003	1	f	1	0.9078600676730275
12	31	n/a	n/a	n/a	f	9	0.05000000000000003	0	f	1	0.8479708787053823
12	32	n/a	n/a	n/a	f	9	0.06000000000000003	0	f	1	1.051794143859297
12	33	n/a	n/a	n/a	j	9	0.07000000000000003	1	j	1	0.8574688858352602
12	34	n/a	n/a	n/a	f	9	0.06000000000000003	0	f	1	0.9257881077937782
12	35	n/a	n/a	n/a	f	9	0.07000000000000003	1	f	1	1.041649252176285
12	36	n/a	n/a	n/a	f	9	0.06000000000000003	1	f	1	0.9497288442216814
12	37	n/a	n/a	n/a	j	9	0.05000000000000003	1	j	1	0.9076733286492527
12	38	n/a	n/a	n/a	f	9	0.04000000000000003	0	f	1	0.8486439930275083
12	39	n/a	n/a	n/a	f	9	0.05000000000000003	0	f	1	0.9394302852451801
12	40	n/a	n/a	n/a	f	9	0.06000000000000003	1	f	1	1.09649535920471
12	41	n/a	n/a	n/a	j	9	0.05000000000000003	2	j	1	0.8863033121451735
12	42	n/a	n/a	n/a	f	9	0.06000000000000003	0	f	1	1.073787667788565
12	43	n/a	n/a	n/a	f	9	0.07000000000000003	2	f	1	0.8552371468394995
12	44	n/a	n/a	n/a	f	9	0.08000000000000003	0	f	1	0.7951455391012132
12	45	n/a	n/a	n/a	j	9	0.09000000000000002	0	j	1	0.8461054894141853
12	46	n/a	n/a	n/a	f	9	0.1	0	f	1	0.9981728135608137
12	47	n/a	n/a	n/a	f	9	0.11	1	f	1	1.009937911760062
12	48	n/a	n/a	n/a	f	9	0.1	1	f	1	0.8949229358695447
12	49	n/a	n/a	n/a	j	9	0.09000000000000002	0	j	1	0.8185979044064879
12	50	n/a	n/a	n/a	f	9	0.1	0	f	1	1.029790356755257
12	51	n/a	n/a	n/a	f	9	0.11	1	f	1	1.178085561841726
12	52	n/a	n/a	n/a	f	9	0.1	2	f	1	0.9002414201386273
12	53	n/a	n/a	n/a	j	9	0.11	1	j	1	0.7688715690746903
12	54	n/a	n/a	n/a	f	9	0.1	0	f	1	0.9075239379890263
12	55	n/a	n/a	n/a	f	9	0.11	1	f	1	0.929897780995816
12	56	n/a	n/a	n/a	f	9	0.1	1	f	1	1.00551235023886
12	57	n/a	n/a	n/a	j	9	0.09000000000000002	1	j	1	0.9365676254965365
12	58	n/a	n/a	n/a	f	9	0.08000000000000003	1	f	1	0.8526108330115676
12	59	n/a	n/a	n/a	f	9	0.07000000000000003	0	f	1	0.9920095861889422
12	60	n/a	n/a	n/a	f	9	0.08000000000000003	1	f	1	0.9802251011133194
12	61	n/a	n/a	n/a	j	9	0.07000000000000003	1	j	1	0.8483959590084851
12	62	n/a	n/a	n/a	f	9	0.06000000000000003	0	f	1	0.9401735328137875
12	63	n/a	n/a	n/a	f	9	0.07000000000000003	1	f	1	1.065314869396389
12	64	n/a	n/a	n/a	f	9	0.06000000000000003	2	f	1	0.8685967922210693
12	65	n/a	n/a	n/a	j	9	0.07000000000000003	0	j	1	0.8641729420050979
12	66	n/a	n/a	n/a	f	9	0.08000000000000003	0	f	1	0.9411166338250041
12	67	n/a	n/a	n/a	f	9	0.09000000000000002	1	f	1	0.9459675592370331
12	68	n/a	n/a	n/a	f	9	0.08000000000000003	1	f	1	0.9808124010451138
12	69	n/a	n/a	n/a	j	9	0.07000000000000003	1	j	1	0.969770023599267
12	70	n/a	n/a	n/a	f	9	0.06000000000000003	1	f	1	0.9107595039531589
12	71	n/a	n/a	n/a	f	9	0.05000000000000003	0	f	1	0.9477397222071886
13	0	f	1	0.0554145909845829	f	1	0.04000000000000001	2	f	1	0.4407306122593582
13	1	n/a	n/a	n/a	j	1	0.05000000000000002	2	j	1	0.4309500744566321
13	2	n/a	n/a	n/a	f	1	0.06000000000000002	1	f	1	0.4467079564929008
13	3	n/a	n/a	n/a	f	1	0.05000000000000002	2	f	1	0.4216484995558858
13	4	n/a	n/a	n/a	f	1	0.06000000000000002	1	f	1	0.3507089507766068
13	5	n/a	n/a	n/a	j	1	0.05000000000000002	1	j	1	0.3556109084747732
13	6	n/a	n/a	n/a	f	1	0.04000000000000001	1	f	1	0.4233493879437447
13	7	n/a	n/a	n/a	f	1	0.03000000000000001	2	f	1	0.3326771352440119
13	8	n/a	n/a	n/a	f	1	0.04000000000000001	0	f	1	0.3281589178368449
13	9	n/a	n/a	n/a	j	1	0.05000000000000002	0	j	1	0.3495640009641647
13	10	n/a	n/a	n/a	f	1	0.06000000000000002	1	f	1	0.3874873202294111
13	11	n/a	n/a	n/a	f	1	0.05000000000000002	1	f	1	0.3761920621618629
13	12	n/a	n/a	n/a	f	1	0.04000000000000001	1	f	1	0.3593947160989046
13	13	n/a	n/a	n/a	j	1	0.03000000000000001	1	j	1	0.3704544845968485
13	14	n/a	n/a	n/a	f	1	0.02000000000000001	1	f	1	0.3582295244559646
13	15	n/a	n/a	n/a	f	1	0.01000000000000001	0	f	1	0.3552727834321558
13	16	n/a	n/a	n/a	f	1	0.02000000000000001	0	f	1	0.3374117412604392
13	17	n/a	n/a	n/a	j	1	0.03000000000000001	0	j	1	0.3505775211378932
13	18	n/a	n/a	n/a	f	1	0.04000000000000001	1	f	1	0.3962580449879169
13	19	n/a	n/a	n/a	f	1	0.03000000000000001	1	f	1	0.3777156206779182
13	20	n/a	n/a	n/a	f	1	0.02000000000000001	1	f	1	0.3163735773414373
13	21	n/a	n/a	n/a	j	1	0.01000000000000001	0	j	1	0.3439877890050411
13	22	n/a	n/a	n/a	f	1	0.02000000000000001	0	f	1	0.341425621882081
13	23	n/a	n/a	n/a	f	1	0.03000000000000001	0	f	1	0.3534404654055834
13	24	n/a	n/a	n/a	f	1	0.04000000000000001	1	f	1	0.3407604903914034
13	25	n/a	n/a	n/a	j	1	0.03000000000000001	0	j	1	0.409252196084708
13	26	n/a	n/a	n/a	f	1	0.04000000000000001	1	f	1	0.3348050988279283
13	27	n/a	n/a	n/a	f	1	0.03000000000000001	0	f	1	0.3972772667184472
13	28	n/a	n/a	n/a	f	1	0.04000000000000001	1	f	1	0.3869558996520936
13	29	n/a	n/a	n/a	j	1	0.03000000000000001	1	j	1	0.3270407672971487
13	30	n/a	n/a	n/a	f	1	0.02000000000000001	0	f	1	0.3791428157128394
13	31	n/a	n/a	n/a	f	1	0.03000000000000001	1	f	1	0.3872352945618331
13	32	n/a	n/a	n/a	f	1	0.02000000000000001	1	f	1	0.3452328070998192
13	33	n/a	n/a	n/a	j	1	0.01000000000000001	0	j	1	0.3420904679223895
13	34	n/a	n/a	n/a	f	1	0.02000000000000001	0	f	1	0.3139379937201738
13	35	n/a	n/a	n/a	f	1	0.03000000000000001	0	f	1	0.3761926321312785
13	36	n/a	n/a	n/a	f	1	0.04000000000000001	1	f	1	0.3399893031455576
13	37	n/a	n/a	n/a	j	1	0.03000000000000001	0	j	1	0.343819581437856
13	38	n/a	n/a	n/a	f	1	0.04000000000000001	0	f	1	0.3638975382782519
13	39	n/a	n/a	n/a	f	1	0.05000000000000002	1	f	1	0.3589659305289388
13	40	n/a	n/a	n/a	f	1	0.04000000000000001	1	f	1	0.3659111787565053
13	41	n/a	n/a	n/a	j	1	0.03000000000000001	1	j	1	0.3489832584746182
13	42	n/a	n/a	n/a	f	1	0.02000000000000001	0	f	1	0.352998279966414
13	43	n/a	n/a	n/a	f	1	0.03000000000000001	0	f	1	0.3254781505092978
13	44	n/a	n/a	n/a	f	1	0.04000000000000001	0	f	1	0.3389498395845294
13	45	n/a	n/a	n/a	j	1	0.05000000000000002	0	j	1	0.3904956639744341
13	46	n/a	n/a	n/a	f	1	0.06000000000000002	1	f	1	0.3557916600257158
13	47	n/a	n/a	n/a	f	1	0.05000000000000002	1	f	1	0.384888376109302
13	48	n/a	n/a	n/a	f	1	0.04000000000000001	1	f	1	0.3149723256938159
13	49	n/a	n/a	n/a	j	1	0.03000000000000001	0	j	1	0.3904697201214731
13	50	n/a	n/a	n/a	f	1	0.04000000000000001	1	f	1	0.8506830069236457
13	51	n/a	n/a	n/a	f	1	0.03000000000000001	2	f	1	0.2647291095927358
13	52	n/a	n/a	n/a	f	1	0.04000000000000001	2	j	0	0.4202985647134483
13	53	n/a	n/a	n/a	j	1	0.05000000000000002	2	f	0	0.5127307218499482
13	54	n/a	n/a	n/a	f	1	0.04000000000000001	2	f	1	0.2527373591437936
13	55	n/a	n/a	n/a	f	1	0.05000000000000002	0	f	1	0.4890172076411545
13	56	n/a	n/a	n/a	f	1	0.06000000000000002	2	f	1	0.3742183353751898
13	57	n/a	n/a	n/a	j	1	0.07000000000000002	1	j	1	0.3934954549185932
13	58	n/a	n/a	n/a	f	1	0.06000000000000002	1	f	1	0.3746670777909458
13	59	n/a	n/a	n/a	f	1	0.05000000000000002	1	f	1	0.3402059767395258
13	60	n/a	n/a	n/a	f	1	0.04000000000000001	0	f	1	0.3375115250237286
13	61	n/a	n/a	n/a	j	1	0.05000000000000002	0	j	1	0.3585608075372875
13	62	n/a	n/a	n/a	f	1	0.06000000000000002	1	f	1	0.3940397049300373
13	63	n/a	n/a	n/a	f	1	0.05000000000000002	1	f	1	0.34250642452389
13	64	n/a	n/a	n/a	f	1	0.04000000000000001	0	f	1	0.3222921914421022
13	65	n/a	n/a	n/a	j	1	0.05000000000000002	0	j	1	0.3823464508168399
13	66	n/a	n/a	n/a	f	1	0.06000000000000002	1	f	1	0.3458782667294145
13	67	n/a	n/a	n/a	f	1	0.05000000000000002	1	f	1	0.3902701525948942
13	68	n/a	n/a	n/a	f	1	0.04000000000000001	1	f	1	0.3382473606616259
13	69	n/a	n/a	n/a	j	1	0.03000000000000001	0	j	1	0.3892654702067375
13	70	n/a	n/a	n/a	f	1	0.04000000000000001	1	f	1	0.3873091344721615
13	71	n/a	n/a	n/a	f	1	0.03000000000000001	1	f	1	0.4102218109183013
14	0	f	1	0.4429480968974531	f	3	0.04000000000000001	1	f	1	0.3752064811997116
14	1	n/a	n/a	n/a	f	3	0.03000000000000001	1	f	1	0.3394017182290554
14	2	n/a	n/a	n/a	j	3	0.02000000000000001	0	j	1	0.3834899752400815
14	3	n/a	n/a	n/a	f	3	0.03000000000000001	1	f	1	0.3873598822392523
14	4	n/a	n/a	n/a	f	3	0.02000000000000001	1	f	1	0.3753812457434833
14	5	n/a	n/a	n/a	f	3	0.01000000000000001	0	f	1	0.3813913762569427
14	6	n/a	n/a	n/a	f	3	0.02000000000000001	1	f	1	0.3543214150704443
14	7	n/a	n/a	n/a	f	3	0.01000000000000001	0	f	1	0.38444191403687
14	8	n/a	n/a	n/a	j	3	0.02000000000000001	1	j	1	0.3713066396303475
14	9	n/a	n/a	n/a	f	3	0.01000000000000001	0	f	1	0.4305757419206202
14	10	n/a	n/a	n/a	f	3	0.02000000000000001	2	f	1	0.3621724164113402
14	11	n/a	n/a	n/a	f	3	0.03000000000000001	1	f	1	0.3993008849211037
14	12	n/a	n/a	n/a	f	3	0.02000000000000001	1	f	1	0.3792092436924577
14	13	n/a	n/a	n/a	f	3	0.01000000000000001	0	f	1	0.3830047403462231
14	14	n/a	n/a	n/a	j	3	0.02000000000000001	1	j	1	0.381248542573303
14	15	n/a	n/a	n/a	f	3	0.01000000000000001	1	f	1	0.4172765370458364
14	16	n/a	n/a	n/a	f	3	1.040834085586084e-17	2	f	1	0.3728706818073988
14	17	n/a	n/a	n/a	f	3	0.01000000000000001	0	f	1	0.3939692862331867
14	18	n/a	n/a	n/a	f	3	0.02000000000000001	1	f	1	0.3500435343012214
14	19	n/a	n/a	n/a	f	3	0.01000000000000001	0	f	1	0.4020358207635581
14	20	n/a	n/a	n/a	j	3	0.02000000000000001	1	j	1	0.4171017720364034
14	21	n/a	n/a	n/a	f	3	0.01000000000000001	2	f	1	0.3499158108606935
14	22	n/a	n/a	n/a	f	3	0.02000000000000001	0	f	1	0.4330036281608045
14	23	n/a	n/a	n/a	f	3	0.03000000000000001	2	f	1	0.3660511611960828
14	24	n/a	n/a	n/a	f	3	0.04000000000000001	1	f	1	0.3878111904487014
14	25	n/a	n/a	n/a	f	3	0.03000000000000001	1	f	1	0.3458685735240579
14	26	n/a	n/a	n/a	j	3	0.02000000000000001	0	j	1	0.3932123533450067
14	27	n/a	n/a	n/a	f	3	0.03000000000000001	1	f	1	0.3729014722630382
14	28	n/a	n/a	n/a	f	3	0.02000000000000001	1	f	1	0.4107680572196841
14	29	n/a	n/a	n/a	f	3	0.01000000000000001	2	f	1	0.3690227274782956
14	30	n/a	n/a	n/a	f	3	0.02000000000000001	0	f	1	0.3347828616388142
14	31	n/a	n/a	n/a	f	3	0.03000000000000001	0	f	1	0.3077585157006979
14	32	n/a	n/a	n/a	j	3	0.04000000000000001	0	j	1	0.3765977551229298
14	33	n/a	n/a	n/a	f	3	0.05000000000000002	1	f	1	0.3977371281944215
14	34	n/a	n/a	n/a	f	3	0.04000000000000001	1	f	1	0.3856515805236995
14	35	n/a	n/a	n/a	f	3	0.03000000000000001	1	f	1	0.3836858365684748
14	36	n/a	n/a	n/a	f	3	0.02000000000000001	1	f	1	0.3896973920054734
14	37	n/a	n/a	n/a	f	3	0.01000000000000001	1	f	1	0.3406039723195136
14	38	n/a	n/a	n/a	j	3	1.040834085586084e-17	0	j	1	0.38467997033149
14	39	n/a	n/a	n/a	f	3	0.01000000000000001	1	f	1	0.3504734607413411
14	40	n/a	n/a	n/a	f	3	1.040834085586084e-17	0	f	1	0.420575394295156
14	41	n/a	n/a	n/a	f	3	0.01000000000000001	2	f	1	0.3618094879202545
14	42	n/a	n/a	n/a	f	3	0.02000000000000001	0	f	1	0.4065380729734898
14	43	n/a	n/a	n/a	f	3	0.03000000000000001	1	f	1	0.3721793214790523
14	44	n/a	n/a	n/a	j	3	0.02000000000000001	1	j	1	0.3694406794384122
14	45	n/a	n/a	n/a	f	3	0.01000000000000001	0	f	1	0.399416349362582
14	46	n/a	n/a	n/a	f	3	0.02000000000000001	1	f	1	0.3802447160705924
14	47	n/a	n/a	n/a	f	3	0.01000000000000001	1	f	1	0.3684987188316882
14	48	n/a	n/a	n/a	f	3	1.040834085586084e-17	0	f	1	0.3412996088154614
14	49	n/a	n/a	n/a	f	3	0.01000000000000001	0	f	1	0.4253681600093842
14	50	n/a	n/a	n/a	j	3	0.02000000000000001	2	j	1	0.3569497242569923
14	51	n/a	n/a	n/a	f	3	0.03000000000000001	1	f	1	0.3630046145990491
14	52	n/a	n/a	n/a	f	3	0.02000000000000001	0	f	1	0.3872278816998005
14	53	n/a	n/a	n/a	f	3	0.03000000000000001	1	f	1	0.3594035543501377
14	54	n/a	n/a	n/a	f	3	0.02000000000000001	0	f	1	0.3807430653832853
14	55	n/a	n/a	n/a	f	3	0.03000000000000001	1	f	1	0.4032172625884414
14	56	n/a	n/a	n/a	j	3	0.02000000000000001	1	j	1	0.3621330731548369
14	57	n/a	n/a	n/a	f	3	0.01000000000000001	0	f	1	0.3673055879771709
14	58	n/a	n/a	n/a	f	3	0.02000000000000001	0	f	1	0.3892027493566275
14	59	n/a	n/a	n/a	f	3	0.03000000000000001	1	f	1	0.3571433052420616
14	60	n/a	n/a	n/a	f	3	0.02000000000000001	0	f	1	0.4057261166162789
14	61	n/a	n/a	n/a	f	3	0.03000000000000001	1	f	1	0.3632677593268454
14	62	n/a	n/a	n/a	j	3	0.02000000000000001	0	j	1	0.3682159027084708
14	63	n/a	n/a	n/a	f	3	0.03000000000000001	1	f	1	0.3827253449708223
14	64	n/a	n/a	n/a	f	3	0.02000000000000001	1	f	1	0.397967201191932
14	65	n/a	n/a	n/a	f	3	0.01000000000000001	2	f	1	0.3477311125025153
14	66	n/a	n/a	n/a	f	3	0.02000000000000001	0	f	1	0.4098859666846693
14	67	n/a	n/a	n/a	f	3	0.03000000000000001	1	f	1	0.3269130438566208
14	68	n/a	n/a	n/a	j	3	0.02000000000000001	0	j	1	0.3649247433058918
14	69	n/a	n/a	n/a	f	3	0.03000000000000001	1	f	1	0.3849947173148394
14	70	n/a	n/a	n/a	f	3	0.02000000000000001	1	f	1	0.3638633266091347
14	71	n/a	n/a	n/a	f	3	0.01000000000000001	0	f	1	0.3698540702462196
15	0	f	1	0.0204138015396893	f	5	0.02000000000000001	0	f	1	0.5819251914508641
15	1	n/a	n/a	n/a	j	5	0.03000000000000001	1	j	1	0.589287537150085
15	2	n/a	n/a	n/a	f	5	0.02000000000000001	1	f	1	0.5365023957565427
15	3	n/a	n/a	n/a	f	5	0.01000000000000001	0	f	1	0.6057849605567753
15	4	n/a	n/a	n/a	f	5	0.02000000000000001	2	f	1	0.5238797254860401
15	5	n/a	n/a	n/a	j	5	0.03000000000000001	0	j	1	0.6257183733396232
15	6	n/a	n/a	n/a	f	5	0.04000000000000001	1	f	1	0.5347054293379188
15	7	n/a	n/a	n/a	f	5	0.03000000000000001	0	f	1	0.5967653463594615
15	8	n/a	n/a	n/a	f	5	0.04000000000000001	1	f	1	0.4998007169924676
15	9	n/a	n/a	n/a	j	5	0.03000000000000001	0	j	1	0.6815517717041075
15	10	n/a	n/a	n/a	f	5	0.04000000000000001	2	f	1	0.5024811988696456
15	11	n/a	n/a	n/a	f	5	0.05000000000000002	2	j	0	0.6094293552450836
15	12	n/a	n/a	n/a	f	5	0.06000000000000002	1	f	1	0.5894243833608925
15	13	n/a	n/a	n/a	j	5	0.05000000000000002	1	j	1	0.625631988979876
15	14	n/a	n/a	n/a	f	5	0.04000000000000001	1	f	1	0.5083735841326416
15	15	n/a	n/a	n/a	f	5	0.03000000000000001	0	f	1	0.5988736385479569
15	16	n/a	n/a	n/a	f	5	0.04000000000000001	1	f	1	0.5222426983527839
15	17	n/a	n/a	n/a	j	5	0.03000000000000001	0	j	1	0.6312580932863057
15	18	n/a	n/a	n/a	f	5	0.04000000000000001	2	f	1	0.5212397272698581
15	19	n/a	n/a	n/a	f	5	0.05000000000000002	0	f	1	0.6154181035235524
15	20	n/a	n/a	n/a	f	5	0.06000000000000002	1	f	1	0.5241548442281783
15	21	n/a	n/a	n/a	j	5	0.05000000000000002	0	j	1	0.6577188023366034
15	22	n/a	n/a	n/a	f	5	0.06000000000000002	2	f	1	0.4701942480169237
15	23	n/a	n/a	n/a	f	5	0.07000000000000002	0	f	1	0.5550858741626143
15	24	n/a	n/a	n/a	f	5	0.08000000000000002	1	f	1	0.5340762203559279
15	25	n/a	n/a	n/a	j	5	0.07000000000000002	1	j	1	0.5131438276730478
15	26	n/a	n/a	n/a	f	5	0.06000000000000002	0	f	1	0.3959860620088875
15	27	n/a	n/a	n/a	f	5	0.07000000000000002	0	j	0	0.4801492653787136
15	28	n/a	n/a	n/a	f	5	0.08000000000000002	0	f	1	0.6189393363893032
15	29	n/a	n/a	n/a	j	5	0.09000000000000001	1	j	1	0.4549814714118838
15	30	n/a	n/a	n/a	f	5	0.08000000000000002	0	f	1	0.5219159773550928
15	31	n/a	n/a	n/a	f	5	0.09000000000000001	1	f	1	0.4608165519312024
15	32	n/a	n/a	n/a	f	5	0.08000000000000002	0	f	1	0.4880535798147321
15	33	n/a	n/a	n/a	j	5	0.09000000000000001	0	j	1	0.5349651528522372
15	34	n/a	n/a	n/a	f	5	0.1	1	f	1	0.4897801275365055
15	35	n/a	n/a	n/a	f	5	0.09000000000000001	0	f	1	0.4937147512100637
15	36	n/a	n/a	n/a	f	5	0.1	1	f	1	0.4005384910851717
15	37	n/a	n/a	n/a	j	5	0.09000000000000001	0	j	1	0.5643646414391696
15	38	n/a	n/a	n/a	f	5	0.1	1	f	1	0.4815858695656061
15	39	n/a	n/a	n/a	f	5	0.09000000000000001	0	f	1	0.4446455645374954
15	40	n/a	n/a	n/a	f	5	0.1	0	f	1	0.5307100797072053
15	41	n/a	n/a	n/a	j	5	0.11	1	j	1	0.5355456103570759
15	42	n/a	n/a	n/a	f	5	0.1	1	f	1	0.4520575166679919
15	43	n/a	n/a	n/a	f	5	0.09000000000000001	0	f	1	0.5046556340530515
15	44	n/a	n/a	n/a	f	5	0.1	1	f	1	0.5004957835189998
15	45	n/a	n/a	n/a	j	5	0.09000000000000001	1	j	1	0.5194595814682543
15	46	n/a	n/a	n/a	f	5	0.08000000000000002	1	f	1	0.4663973259739578
15	47	n/a	n/a	n/a	f	5	0.07000000000000002	0	f	1	0.5195838836953044
15	48	n/a	n/a	n/a	f	5	0.08000000000000002	1	f	1	0.4902893104590476
15	49	n/a	n/a	n/a	j	5	0.07000000000000002	0	j	1	0.5342598226852715
15	50	n/a	n/a	n/a	f	5	0.08000000000000002	1	f	1	0.4982711719349027
15	51	n/a	n/a	n/a	f	5	0.07000000000000002	0	f	1	0.509143631439656
15	52	n/a	n/a	n/a	f	5	0.08000000000000002	1	f	1	0.4809888759627938
15	53	n/a	n/a	n/a	j	5	0.07000000000000002	0	j	1	0.5249685109592974
15	54	n/a	n/a	n/a	f	5	0.08000000000000002	1	f	1	0.5300192893482745
15	55	n/a	n/a	n/a	f	5	0.07000000000000002	1	f	1	0.4962603827007115
15	56	n/a	n/a	n/a	f	5	0.06000000000000002	0	f	1	0.4601140730082989
15	57	n/a	n/a	n/a	j	5	0.07000000000000002	0	j	1	0.5442379326559603
15	58	n/a	n/a	n/a	f	5	0.08000000000000002	1	f	1	0.5491167977452278
15	59	n/a	n/a	n/a	f	5	0.07000000000000002	1	f	1	0.5858814832754433
15	60	n/a	n/a	n/a	f	5	0.06000000000000002	1	f	1	0.5027124132029712
15	61	n/a	n/a	n/a	j	5	0.05000000000000002	0	j	1	0.5299232117831707
15	62	n/a	n/a	n/a	f	5	0.06000000000000002	1	f	1	0.4369108830578625
15	63	n/a	n/a	n/a	f	5	0.05000000000000002	0	f	1	0.6890714904293418
15	64	n/a	n/a	n/a	f	5	0.06000000000000002	2	f	1	0.4376438669860363
15	65	n/a	n/a	n/a	j	5	0.07000000000000002	0	j	1	0.5329118836671114
15	66	n/a	n/a	n/a	f	5	0.08000000000000002	1	f	1	0.5227507413364947
15	67	n/a	n/a	n/a	f	5	0.07000000000000002	1	f	1	0.5039628483355045
15	68	n/a	n/a	n/a	f	5	0.06000000000000002	0	f	1	0.4508050857111812
15	69	n/a	n/a	n/a	j	5	0.07000000000000002	0	j	1	0.5667469119653106
15	70	n/a	n/a	n/a	f	5	0.08000000000000002	1	f	1	0.4825760112144053
15	71	n/a	n/a	n/a	f	5	0.07000000000000002	0	f	1	0.4719088212586939
16	0	j	1	0.8786216587759554	j	10	0.14	0	j	1	0.8630051845684648
16	1	n/a	n/a	n/a	f	10	0.15	1	f	1	0.9367594961076975
16	2	n/a	n/a	n/a	j	10	0.14	1	j	1	0.8697788044810295
16	3	n/a	n/a	n/a	j	10	0.13	1	j	1	0.9229893106967211
16	4	n/a	n/a	n/a	j	10	0.12	1	j	1	0.9754967670887709
16	5	n/a	n/a	n/a	f	10	0.11	1	f	1	0.9259876762516797
16	6	n/a	n/a	n/a	j	10	0.1	1	j	1	0.8437585709616542
16	7	n/a	n/a	n/a	j	10	0.09000000000000002	0	j	1	1.006328013259917
16	8	n/a	n/a	n/a	j	10	0.1	1	j	1	1.025179767981172
16	9	n/a	n/a	n/a	f	10	0.09000000000000002	1	f	1	0.9985844935290515
16	10	n/a	n/a	n/a	j	10	0.08000000000000003	1	j	1	0.9055704534985125
16	11	n/a	n/a	n/a	j	10	0.07000000000000003	0	j	1	0.944501590449363
16	12	n/a	n/a	n/a	j	10	0.08000000000000003	1	j	1	1.018358251545578
16	13	n/a	n/a	n/a	f	10	0.07000000000000003	1	f	1	0.9180095209740102
16	14	n/a	n/a	n/a	j	10	0.06000000000000003	0	j	1	0.945912535302341
16	15	n/a	n/a	n/a	j	10	0.07000000000000003	1	j	1	1.046309732832015
16	16	n/a	n/a	n/a	j	10	0.06000000000000003	2	j	1	1.066795663442463
16	17	n/a	n/a	n/a	f	10	0.07000000000000003	2	f	1	0.8546615354716778
16	18	n/a	n/a	n/a	j	10	0.08000000000000003	0	j	1	1.002121121622622
16	19	n/a	n/a	n/a	j	10	0.09000000000000002	1	j	1	0.9521838147193193
16	20	n/a	n/a	n/a	j	10	0.08000000000000003	1	j	1	0.9149586982093751
16	21	n/a	n/a	n/a	f	10	0.07000000000000003	0	f	1	0.9899848271161318
16	22	n/a	n/a	n/a	j	10	0.08000000000000003	1	j	1	0.9948254893533885
16	23	n/a	n/a	n/a	j	10	0.07000000000000003	1	j	1	0.2538421098142862
16	24	n/a	n/a	n/a	j	10	0.06000000000000003	0	j	1	0.6658089999109507
16	25	n/a	n/a	n/a	f	10	0.07000000000000003	0	f	1	0.8217869997024536
16	26	n/a	n/a	n/a	j	10	0.08000000000000003	0	j	1	0.889721910469234
16	27	n/a	n/a	n/a	j	10	0.09000000000000002	0	j	1	0.9038339271210134
16	28	n/a	n/a	n/a	j	10	0.1	1	j	1	0.9950729538686574
16	29	n/a	n/a	n/a	f	10	0.09000000000000002	1	f	1	0.9226363603956997
16	30	n/a	n/a	n/a	j	10	0.08000000000000003	1	j	1	1.038492942694575
16	31	n/a	n/a	n/a	j	10	0.07000000000000003	1	j	1	0.9315795684233308
16	32	n/a	n/a	n/a	j	10	0.06000000000000003	1	j	1	0.9764096480794251
16	33	n/a	n/a	n/a	f	10	0.05000000000000003	1	f	1	0.9241855777800083
16	34	n/a	n/a	n/a	j	10	0.04000000000000003	0	j	1	0.9444405799731612
16	35	n/a	n/a	n/a	j	10	0.05000000000000003	1	j	1	0.9264281503856182
16	36	n/a	n/a	n/a	j	10	0.04000000000000003	0	j	1	0.8991532051004469
16	37	n/a	n/a	n/a	f	10	0.05000000000000003	0	f	1	0.999240786768496
16	38	n/a	n/a	n/a	j	10	0.06000000000000003	1	j	1	0.9147203569300473
16	39	n/a	n/a	n/a	j	10	0.05000000000000003	0	j	1	0.9442504202015698
16	40	n/a	n/a	n/a	j	10	0.06000000000000003	1	j	1	1.011960959993303
16	41	n/a	n/a	n/a	f	10	0.05000000000000003	1	f	1	0.9531711055897176
16	42	n/a	n/a	n/a	j	10	0.04000000000000003	1	j	1	0.8528813901357353
16	43	n/a	n/a	n/a	j	10	0.03000000000000003	0	j	1	0.9638009476475418
16	44	n/a	n/a	n/a	j	10	0.04000000000000003	1	j	1	0.8740609618835151
16	45	n/a	n/a	n/a	f	10	0.03000000000000003	0	f	1	0.9586309981532395
16	46	n/a	n/a	n/a	j	10	0.04000000000000003	1	j	1	0.8976156767457724
16	47	n/a	n/a	n/a	j	10	0.03000000000000003	0	j	1	0.8705976032651961
16	48	n/a	n/a	n/a	j	10	0.04000000000000003	0	j	1	0.9645299408584833
16	49	n/a	n/a	n/a	f	10	0.05000000000000003	1	f	1	1.03443800797686
16	50	n/a	n/a	n/a	j	10	0.04000000000000003	2	j	1	1.087433550972492
16	51	n/a	n/a	n/a	j	10	0.05000000000000003	2	j	1	0.9223529738374054
16	52	n/a	n/a	n/a	j	10	0.06000000000000003	0	j	1	0.9022755874320865
16	53	n/a	n/a	n/a	f	10	0.07000000000000003	0	f	1	0.904879093170166
16	54	n/a	n/a	n/a	j	10	0.08000000000000003	1	j	1	0.9053996806032956
16	55	n/a	n/a	n/a	j	10	0.07000000000000003	0	j	1	0.9181383848190308
16	56	n/a	n/a	n/a	j	10	0.08000000000000003	1	j	1	0.9620706937275827
16	57	n/a	n/a	n/a	f	10	0.07000000000000003	1	f	1	0.90424760337919
16	58	n/a	n/a	n/a	j	10	0.06000000000000003	0	j	1	0.9419955876655877
16	59	n/a	n/a	n/a	j	10	0.07000000000000003	1	j	1	0.9299308527261019
16	60	n/a	n/a	n/a	j	10	0.06000000000000003	1	j	1	0.9100171118043363
16	61	n/a	n/a	n/a	f	10	0.05000000000000003	0	f	1	0.9257849715650082
16	62	n/a	n/a	n/a	j	10	0.06000000000000003	0	j	1	0.9743130444549024
16	63	n/a	n/a	n/a	j	10	0.07000000000000003	1	j	1	0.9856065921485424
16	64	n/a	n/a	n/a	j	10	0.06000000000000003	1	j	1	0.933718366548419
16	65	n/a	n/a	n/a	f	10	0.05000000000000003	0	f	1	0.8426409903913736
16	66	n/a	n/a	n/a	j	10	0.06000000000000003	0	j	1	0.9232729822397232
16	67	n/a	n/a	n/a	j	10	0.07000000000000003	1	j	1	0.9030188354663551
16	68	n/a	n/a	n/a	j	10	0.06000000000000003	0	j	1	0.9224521880969405
16	69	n/a	n/a	n/a	f	10	0.07000000000000003	1	f	1	0.9253926784731448
16	70	n/a	n/a	n/a	j	10	0.06000000000000003	1	j	1	0.9613214586861432
16	71	n/a	n/a	n/a	j	10	0.05000000000000003	1	j	1	1.01643156632781
17	0	f	1	0.5238261274062097	f	7	0.04000000000000001	2	f	1	0.5731732835993171
17	1	n/a	n/a	n/a	f	7	0.05000000000000002	1	f	1	0.556269311811775
17	2	n/a	n/a	n/a	j	7	0.04000000000000001	1	j	1	0.5591160054318607
17	3	n/a	n/a	n/a	f	7	0.03000000000000001	1	f	1	0.5720884893089533
17	4	n/a	n/a	n/a	f	7	0.02000000000000001	1	f	1	0.5122337974607944
17	5	n/a	n/a	n/a	f	7	0.01000000000000001	0	f	1	0.5549932173453271
17	6	n/a	n/a	n/a	f	7	0.02000000000000001	0	j	0	0.6699089799076319
17	7	n/a	n/a	n/a	f	7	0.03000000000000001	2	f	1	0.216845640912652
17	8	n/a	n/a	n/a	j	7	0.04000000000000001	2	f	0	0.4390342854894698
17	9	n/a	n/a	n/a	f	7	0.05000000000000002	2	j	0	0.5329463807865977
17	10	n/a	n/a	n/a	f	7	0.06000000000000002	1	f	1	0.6569898091256618
17	11	n/a	n/a	n/a	f	7	0.05000000000000002	2	f	1	0.5158924479037523
17	12	n/a	n/a	n/a	f	7	0.06000000000000002	0	f	1	0.528946184553206
17	13	n/a	n/a	n/a	f	7	0.07000000000000002	1	f	1	0.5898383441381156
17	14	n/a	n/a	n/a	j	7	0.06000000000000002	1	j	1	0.4809560896828771
17	15	n/a	n/a	n/a	f	7	0.05000000000000002	0	f	1	0.5349489022046328
17	16	n/a	n/a	n/a	f	7	0.06000000000000002	1	f	1	0.5878192870877683
17	17	n/a	n/a	n/a	f	7	0.05000000000000002	1	f	1	0.4956066547892988
17	18	n/a	n/a	n/a	f	7	0.04000000000000001	0	f	1	0.5636159763671458
17	19	n/a	n/a	n/a	f	7	0.05000000000000002	1	f	1	0.5506551810540259
17	20	n/a	n/a	n/a	j	7	0.04000000000000001	1	j	1	0.5954772783443332
17	21	n/a	n/a	n/a	f	7	0.03000000000000001	1	f	1	0.5367050999775529
17	22	n/a	n/a	n/a	f	7	0.02000000000000001	0	f	1	0.5964808193966746
17	23	n/a	n/a	n/a	f	7	0.03000000000000001	1	f	1	0.544647331815213
17	24	n/a	n/a	n/a	f	7	0.02000000000000001	0	f	1	0.5644293585792184
17	25	n/a	n/a	n/a	f	7	0.03000000000000001	1	f	1	0.6335357334464788
17	26	n/a	n/a	n/a	j	7	0.02000000000000001	2	j	1	0.4934057062491775
17	27	n/a	n/a	n/a	f	7	0.03000000000000001	0	f	1	0.5533356638625264
17	28	n/a	n/a	n/a	f	7	0.04000000000000001	1	f	1	0.5754500683397055
17	29	n/a	n/a	n/a	f	7	0.03000000000000001	1	f	1	0.5033062701113522
17	30	n/a	n/a	n/a	f	7	0.02000000000000001	0	f	1	0.5792455649934709
17	31	n/a	n/a	n/a	f	7	0.03000000000000001	1	f	1	0.5352796143852174
17	32	n/a	n/a	n/a	j	7	0.02000000000000001	0	j	1	0.5782311898656189
17	33	n/a	n/a	n/a	f	7	0.03000000000000001	1	f	1	0.4563334016129375
17	34	n/a	n/a	n/a	f	7	0.02000000000000001	0	f	1	0.5960908066481352
17	35	n/a	n/a	n/a	f	7	0.03000000000000001	1	f	1	0.5297778123058379
17	36	n/a	n/a	n/a	f	7	0.02000000000000001	0	f	1	0.5910802269354463
17	37	n/a	n/a	n/a	f	7	0.03000000000000001	1	f	1	0.5296948491595685
17	38	n/a	n/a	n/a	j	7	0.02000000000000001	0	j	1	0.5589882819913328
17	39	n/a	n/a	n/a	f	7	0.03000000000000001	1	f	1	0.548001213464886
17	40	n/a	n/a	n/a	f	7	0.02000000000000001	0	f	1	0.5542636546306312
17	41	n/a	n/a	n/a	f	7	0.03000000000000001	1	f	1	0.4800603147596121
17	42	n/a	n/a	n/a	f	7	0.02000000000000001	0	f	1	0.6119154011830688
17	43	n/a	n/a	n/a	f	7	0.03000000000000001	1	f	1	0.5630580419674516
17	44	n/a	n/a	n/a	j	7	0.02000000000000001	0	j	1	0.4857020997442305
17	45	n/a	n/a	n/a	f	7	0.03000000000000001	0	f	1	0.5787919755093753
17	46	n/a	n/a	n/a	f	7	0.04000000000000001	1	f	1	0.543942857068032
17	47	n/a	n/a	n/a	f	7	0.03000000000000001	0	f	1	0.5067761857062578
17	48	n/a	n/a	n/a	f	7	0.04000000000000001	0	f	1	0.566563309635967
17	49	n/a	n/a	n/a	f	7	0.05000000000000002	1	f	1	0.5866529555059969
17	50	n/a	n/a	n/a	j	7	0.04000000000000001	1	j	1	0.5127977197989821
17	51	n/a	n/a	n/a	f	7	0.03000000000000001	0	f	1	0.5566616053692997
17	52	n/a	n/a	n/a	f	7	0.04000000000000001	1	f	1	0.5717118764296174
17	53	n/a	n/a	n/a	f	7	0.03000000000000001	1	f	1	0.5525074568577111
17	54	n/a	n/a	n/a	f	7	0.02000000000000001	0	f	1	0.5640427670441568
17	55	n/a	n/a	n/a	f	7	0.03000000000000001	1	f	1	0.5774377644993365
17	56	n/a	n/a	n/a	j	7	0.02000000000000001	1	j	1	0.5414901678450406
17	57	n/a	n/a	n/a	f	7	0.01000000000000001	0	f	1	0.5623980420641601
17	58	n/a	n/a	n/a	f	7	0.02000000000000001	0	f	1	0.5913881314918399
17	59	n/a	n/a	n/a	f	7	0.03000000000000001	1	f	1	0.5963895884342492
17	60	n/a	n/a	n/a	f	7	0.02000000000000001	1	f	1	0.5193292922340333
17	61	n/a	n/a	n/a	f	7	0.01000000000000001	0	f	1	0.7342576561495662
17	62	n/a	n/a	n/a	j	7	0.02000000000000001	2	j	1	0.697142587043345
17	63	n/a	n/a	n/a	f	7	0.03000000000000001	2	f	1	0.6521568442694843
17	64	n/a	n/a	n/a	f	7	0.04000000000000001	2	f	1	0.6100323358550668
17	65	n/a	n/a	n/a	f	7	0.05000000000000002	1	f	1	0.5901060500182211
17	66	n/a	n/a	n/a	f	7	0.04000000000000001	1	f	1	0.5532327434048057
17	67	n/a	n/a	n/a	f	7	0.03000000000000001	0	f	1	0.5159095535054803
17	68	n/a	n/a	n/a	j	7	0.04000000000000001	0	j	1	0.5921231117099524
17	69	n/a	n/a	n/a	f	7	0.05000000000000002	1	f	1	0.50057418551296
17	70	n/a	n/a	n/a	f	7	0.04000000000000001	0	f	1	0.521918258164078
17	71	n/a	n/a	n/a	f	7	0.05000000000000002	0	j	0	0.550875561311841
18	0	j	1	0.03938529687002301	j	8	0.06000000000000002	1	j	1	0.5528390244580805
18	1	n/a	n/a	n/a	j	8	0.05000000000000002	1	j	1	0.5407779952511191
18	2	n/a	n/a	n/a	f	8	0.04000000000000001	0	f	1	0.5192477544769645
18	3	n/a	n/a	n/a	j	8	0.05000000000000002	0	j	1	0.5793761392123997
18	4	n/a	n/a	n/a	j	8	0.06000000000000002	1	j	1	0.5278146346099675
18	5	n/a	n/a	n/a	j	8	0.05000000000000002	0	j	1	0.5316372150555253
18	6	n/a	n/a	n/a	j	8	0.06000000000000002	1	j	1	0.5986244636587799
18	7	n/a	n/a	n/a	j	8	0.05000000000000002	1	j	1	0.5705449744127691
18	8	n/a	n/a	n/a	f	8	0.04000000000000001	1	f	1	0.5731781306676567
18	9	n/a	n/a	n/a	j	8	0.03000000000000001	1	j	1	0.5215182667598128
18	10	n/a	n/a	n/a	j	8	0.02000000000000001	0	j	1	0.5803739791736007
18	11	n/a	n/a	n/a	j	8	0.03000000000000001	1	j	1	0.5395010462962091
18	12	n/a	n/a	n/a	j	8	0.02000000000000001	0	j	1	0.6144610326737165
18	13	n/a	n/a	n/a	j	8	0.03000000000000001	1	j	1	0.5383774787187576
18	14	n/a	n/a	n/a	f	8	0.02000000000000001	0	f	1	0.5914089437574148
18	15	n/a	n/a	n/a	j	8	0.03000000000000001	1	j	1	0.6042853500694036
18	16	n/a	n/a	n/a	j	8	0.02000000000000001	1	j	1	0.6629634462296963
18	17	n/a	n/a	n/a	j	8	0.01000000000000001	1	f	0	0.5392721127718687
18	18	n/a	n/a	n/a	j	8	0.02000000000000001	0	j	1	0.2872466412372887
18	19	n/a	n/a	n/a	j	8	0.03000000000000001	0	j	1	0.3971689296886325
18	20	n/a	n/a	n/a	f	8	0.04000000000000001	0	f	1	0.6011963239870965
18	21	n/a	n/a	n/a	j	8	0.05000000000000002	1	j	1	0.532060869038105
18	22	n/a	n/a	n/a	j	8	0.04000000000000001	0	j	1	0.4402696103788912
18	23	n/a	n/a	n/a	j	8	0.05000000000000002	0	j	1	0.4681173162534833
18	24	n/a	n/a	n/a	j	8	0.06000000000000002	0	j	1	0.5122124156914651
18	25	n/a	n/a	n/a	j	8	0.07000000000000002	0	j	1	0.4051516461186111
18	26	n/a	n/a	n/a	f	8	0.08000000000000002	0	f	1	0.4250237629748881
18	27	n/a	n/a	n/a	j	8	0.09000000000000001	0	j	1	0.5041741053573787
18	28	n/a	n/a	n/a	j	8	0.1	1	j	1	0.538976467680186
18	29	n/a	n/a	n/a	j	8	0.09000000000000001	1	j	1	0.5018662451766431
18	30	n/a	n/a	n/a	j	8	0.08000000000000002	0	j	1	0.5301626934669912
18	31	n/a	n/a	n/a	j	8	0.09000000000000001	1	j	1	0.560007503721863
18	32	n/a	n/a	n/a	f	8	0.08000000000000002	1	f	1	0.5543711357749999
18	33	n/a	n/a	n/a	j	8	0.07000000000000002	1	j	1	0.4879709021188319
18	34	n/a	n/a	n/a	j	8	0.06000000000000002	0	j	1	0.5468197711743414
18	35	n/a	n/a	n/a	j	8	0.07000000000000002	1	j	1	0.5416917311958969
18	36	n/a	n/a	n/a	j	8	0.06000000000000002	1	j	1	0.5214780680835247
18	37	n/a	n/a	n/a	j	8	0.05000000000000002	0	j	1	0.5343490582890809
18	38	n/a	n/a	n/a	f	8	0.06000000000000002	1	f	1	0.460520051419735
18	39	n/a	n/a	n/a	j	8	0.05000000000000002	0	j	1	0.5705426936037838
18	40	n/a	n/a	n/a	j	8	0.06000000000000002	1	j	1	0.5505536869168282
18	41	n/a	n/a	n/a	j	8	0.05000000000000002	1	j	1	0.5165199465118349
18	42	n/a	n/a	n/a	j	8	0.04000000000000001	0	j	1	0.5206307601183653
18	43	n/a	n/a	n/a	j	8	0.05000000000000002	0	j	1	0.5874820174649358
18	44	n/a	n/a	n/a	f	8	0.06000000000000002	1	f	1	0.5365802273154259
18	45	n/a	n/a	n/a	j	8	0.05000000000000002	0	j	1	0.5163919376209378
18	46	n/a	n/a	n/a	j	8	0.06000000000000002	0	j	1	0.5673752655275166
18	47	n/a	n/a	n/a	j	8	0.07000000000000002	1	j	1	0.5616975584998727
18	48	n/a	n/a	n/a	j	8	0.06000000000000002	1	j	1	0.588341869879514
18	49	n/a	n/a	n/a	j	8	0.05000000000000002	1	j	1	0.551977461669594
18	50	n/a	n/a	n/a	f	8	0.04000000000000001	1	f	1	0.5802459702827036
18	51	n/a	n/a	n/a	j	8	0.03000000000000001	1	j	1	0.5541906696744263
18	52	n/a	n/a	n/a	j	8	0.02000000000000001	0	j	1	0.5812463755719364
18	53	n/a	n/a	n/a	j	8	0.03000000000000001	1	j	1	0.6108576916158199
18	54	n/a	n/a	n/a	j	8	0.02000000000000001	2	j	1	0.582110789604485
18	55	n/a	n/a	n/a	j	8	0.03000000000000001	1	j	1	0.5477916672825813
18	56	n/a	n/a	n/a	f	8	0.02000000000000001	0	f	1	0.5522480187937617
18	57	n/a	n/a	n/a	j	8	0.03000000000000001	0	j	1	0.5560198519378901
18	58	n/a	n/a	n/a	j	8	0.04000000000000001	1	j	1	0.5052446448244154
18	59	n/a	n/a	n/a	j	8	0.03000000000000001	0	j	1	0.5877197883091867
18	60	n/a	n/a	n/a	j	8	0.04000000000000001	1	j	1	0.5109089519828558
18	61	n/a	n/a	n/a	j	8	0.03000000000000001	0	j	1	0.5548763275146484
18	62	n/a	n/a	n/a	f	8	0.04000000000000001	1	f	1	0.5039950646460056
18	63	n/a	n/a	n/a	j	8	0.03000000000000001	0	j	1	0.5964084048755467
18	64	n/a	n/a	n/a	j	8	0.04000000000000001	1	j	1	0.5053062257356942
18	65	n/a	n/a	n/a	j	8	0.03000000000000001	0	j	1	0.5015189968980849
18	66	n/a	n/a	n/a	j	8	0.04000000000000001	0	j	1	0.5246215481311083
18	67	n/a	n/a	n/a	j	8	0.05000000000000002	0	j	1	0.576888382434845
18	68	n/a	n/a	n/a	f	8	0.06000000000000002	1	f	1	0.540646281093359
18	69	n/a	n/a	n/a	j	8	0.05000000000000002	1	j	1	0.5437732245773077
18	70	n/a	n/a	n/a	j	8	0.04000000000000001	0	j	1	0.5409829802811146
18	71	n/a	n/a	n/a	j	8	0.05000000000000002	1	j	1	0.6807341137900949
19	0	j	1	0.07170332362875342	j	12	0.12	0	j	1	0.9210589188151062
19	1	n/a	n/a	n/a	j	12	0.13	1	j	1	0.9561440972611308
19	2	n/a	n/a	n/a	f	12	0.12	1	f	1	0.8728219303302467
19	3	n/a	n/a	n/a	j	12	0.11	0	j	1	0.8598970570601523
19	4	n/a	n/a	n/a	j	12	0.12	0	j	1	0.977856230456382
19	5	n/a	n/a	n/a	j	12	0.13	1	j	1	0.918529252987355
19	6	n/a	n/a	n/a	j	12	0.12	1	j	1	0.897735417354852
19	7	n/a	n/a	n/a	j	12	0.11	1	j	1	0.9807382761500776
19	8	n/a	n/a	n/a	f	12	0.1	1	f	1	0.9357838942669332
19	9	n/a	n/a	n/a	j	12	0.09000000000000002	1	j	1	0.8284551333636045
19	10	n/a	n/a	n/a	j	12	0.08000000000000003	0	j	1	0.9114887821488082
19	11	n/a	n/a	n/a	j	12	0.09000000000000002	1	j	1	0.9154473538510501
19	12	n/a	n/a	n/a	j	12	0.08000000000000003	1	j	1	0.8314372482709587
19	13	n/a	n/a	n/a	j	12	0.07000000000000003	0	j	1	1.004368541296571
19	14	n/a	n/a	n/a	f	12	0.08000000000000003	1	f	1	0.8593379817903042
19	15	n/a	n/a	n/a	j	12	0.07000000000000003	0	j	1	0.8232948775403202
19	16	n/a	n/a	n/a	j	12	0.08000000000000003	0	j	1	0.8752164598554373
19	17	n/a	n/a	n/a	j	12	0.09000000000000002	0	j	1	0.9123583282344043
19	18	n/a	n/a	n/a	j	12	0.1	1	j	1	0.8621781184338033
19	19	n/a	n/a	n/a	j	12	0.09000000000000002	0	j	1	0.980913610663265
19	20	n/a	n/a	n/a	f	12	0.1	1	f	1	1.031869284342974
19	21	n/a	n/a	n/a	j	12	0.09000000000000002	1	j	1	0.853006832767278
19	22	n/a	n/a	n/a	j	12	0.08000000000000003	0	j	1	0.9539568331092596
19	23	n/a	n/a	n/a	j	12	0.09000000000000002	1	j	1	0.8438768861815333
19	24	n/a	n/a	n/a	j	12	0.08000000000000003	0	j	1	1.007702465634793
19	25	n/a	n/a	n/a	j	12	0.09000000000000002	1	j	1	0.9637587531469762
19	26	n/a	n/a	n/a	f	12	0.08000000000000003	1	f	1	1.01766118966043
19	27	n/a	n/a	n/a	j	12	0.07000000000000003	1	j	1	0.9423582311719656
19	28	n/a	n/a	n/a	j	12	0.06000000000000003	1	j	1	0.9722492271102965
19	29	n/a	n/a	n/a	j	12	0.05000000000000003	1	j	1	0.9515782683156431
19	30	n/a	n/a	n/a	j	12	0.04000000000000003	1	j	1	0.9474406554363668
19	31	n/a	n/a	n/a	j	12	0.03000000000000003	0	j	1	0.9914459493011236
19	32	n/a	n/a	n/a	f	12	0.04000000000000003	1	f	1	0.9872162500396371
19	33	n/a	n/a	n/a	j	12	0.03000000000000003	1	j	1	0.9209702531807125
19	34	n/a	n/a	n/a	j	12	0.02000000000000002	0	j	1	0.8689354876987636
19	35	n/a	n/a	n/a	j	12	0.03000000000000003	0	j	1	0.9138787505216897
19	36	n/a	n/a	n/a	j	12	0.04000000000000003	0	j	1	0.8243505917489529
19	37	n/a	n/a	n/a	j	12	0.05000000000000003	0	j	1	1.068033269606531
19	38	n/a	n/a	n/a	f	12	0.06000000000000003	2	f	1	0.8882200196385384
19	39	n/a	n/a	n/a	j	12	0.07000000000000003	0	j	1	0.9169270074926317
19	40	n/a	n/a	n/a	j	12	0.08000000000000003	1	j	1	0.8570326874032617
19	41	n/a	n/a	n/a	j	12	0.07000000000000003	0	j	1	0.8849471057765186
19	42	n/a	n/a	n/a	j	12	0.08000000000000003	0	j	1	0.969019933603704
19	43	n/a	n/a	n/a	j	12	0.09000000000000002	1	j	1	0.9017344731837511
19	44	n/a	n/a	n/a	f	12	0.08000000000000003	0	f	1	0.8977254391647875
19	45	n/a	n/a	n/a	j	12	0.09000000000000002	1	j	1	0.8397763357497752
19	46	n/a	n/a	n/a	j	12	0.08000000000000003	0	j	1	0.7553890463896096
19	47	n/a	n/a	n/a	j	12	0.09000000000000002	0	j	1	0.8872954500839114
19	48	n/a	n/a	n/a	j	12	0.1	1	j	1	0.9954894799739122
19	49	n/a	n/a	n/a	j	12	0.09000000000000002	1	j	1	0.9126126347109675
19	50	n/a	n/a	n/a	f	12	0.08000000000000003	1	f	1	0.7474431074224412
19	51	n/a	n/a	n/a	j	12	0.07000000000000003	0	j	1	0.8394413469359279
19	52	n/a	n/a	n/a	j	12	0.08000000000000003	0	j	1	0.9552816785871983
19	53	n/a	n/a	n/a	j	12	0.09000000000000002	1	j	1	0.91792057082057
19	54	n/a	n/a	n/a	j	12	0.08000000000000003	1	j	1	0.9651982081122696
19	55	n/a	n/a	n/a	j	12	0.07000000000000003	1	j	1	0.8883294970728457
19	56	n/a	n/a	n/a	f	12	0.06000000000000003	0	f	1	0.8761048223823309
19	57	n/a	n/a	n/a	j	12	0.07000000000000003	0	j	1	0.8790815202519298
19	58	n/a	n/a	n/a	j	12	0.08000000000000003	0	j	1	1.027050574775785
19	59	n/a	n/a	n/a	j	12	0.09000000000000002	1	j	1	0.9690894968807697
19	60	n/a	n/a	n/a	j	12	0.08000000000000003	1	j	1	1.044927867595106
19	61	n/a	n/a	n/a	j	12	0.07000000000000003	1	j	1	1.00098244426772
19	62	n/a	n/a	n/a	f	12	0.06000000000000003	1	f	1	0.8848139652982354
19	63	n/a	n/a	n/a	j	12	0.05000000000000003	0	j	1	0.930796692147851
19	64	n/a	n/a	n/a	j	12	0.06000000000000003	1	j	1	1.153803849592805
19	65	n/a	n/a	n/a	j	12	0.05000000000000003	2	j	1	0.9906348483636975
19	66	n/a	n/a	n/a	j	12	0.06000000000000003	1	j	1	0.9575479147024453
19	67	n/a	n/a	n/a	j	12	0.05000000000000003	1	j	1	0.9135662843473256
19	68	n/a	n/a	n/a	f	12	0.04000000000000003	0	f	1	0.7824427564628422
19	69	n/a	n/a	n/a	j	12	0.05000000000000003	0	j	1	0.7934050220064819
19	70	n/a	n/a	n/a	j	12	0.06000000000000003	0	j	1	0.9490332077257335
19	71	n/a	n/a	n/a	j	12	0.07000000000000003	1	j	1	0.8579301731660962
20	0	j	1	0.3811929486691952	j	4	0.06000000000000002	2	j	1	0.3895733752287924
20	1	n/a	n/a	n/a	j	4	0.07000000000000002	1	j	1	0.343688721768558
20	2	n/a	n/a	n/a	f	4	0.06000000000000002	1	f	1	0.3785492442548275
20	3	n/a	n/a	n/a	j	4	0.05000000000000002	1	j	1	0.3901002341881394
20	4	n/a	n/a	n/a	j	4	0.04000000000000001	1	j	1	0.3784061251208186
20	5	n/a	n/a	n/a	j	4	0.03000000000000001	1	j	1	0.3905629469081759
20	6	n/a	n/a	n/a	j	4	0.02000000000000001	1	j	1	0.4042641390115023
20	7	n/a	n/a	n/a	j	4	0.01000000000000001	2	j	1	0.3348752330057323
20	8	n/a	n/a	n/a	f	4	0.02000000000000001	0	f	1	0.3703572661615908
20	9	n/a	n/a	n/a	j	4	0.03000000000000001	1	j	1	0.3974506054073572
20	10	n/a	n/a	n/a	j	4	0.02000000000000001	1	j	1	0.3134077130816877
20	11	n/a	n/a	n/a	j	4	0.01000000000000001	0	j	1	0.4355387105606496
20	12	n/a	n/a	n/a	j	4	0.02000000000000001	2	j	1	0.415216710884124
20	13	n/a	n/a	n/a	j	4	0.03000000000000001	2	j	1	0.3462808239273727
20	14	n/a	n/a	n/a	f	4	0.04000000000000001	0	f	1	0.3834053017199039
20	15	n/a	n/a	n/a	j	4	0.05000000000000002	1	j	1	0.4434205028228462
20	16	n/a	n/a	n/a	j	4	0.04000000000000001	2	j	1	0.3912648553960025
20	17	n/a	n/a	n/a	j	4	0.05000000000000002	1	j	1	0.3937902450561523
20	18	n/a	n/a	n/a	j	4	0.04000000000000001	1	j	1	0.4451670069247484
20	19	n/a	n/a	n/a	j	4	0.03000000000000001	2	j	1	0.2418583421967924
20	20	n/a	n/a	n/a	f	4	0.04000000000000001	0	f	1	0.4219250432215631
20	21	n/a	n/a	n/a	j	4	0.05000000000000002	1	j	1	0.426182396709919
20	22	n/a	n/a	n/a	j	4	0.04000000000000001	1	j	1	0.4226258117705584
20	23	n/a	n/a	n/a	j	4	0.03000000000000001	2	j	1	0.4180730977095664
20	24	n/a	n/a	n/a	j	4	0.04000000000000001	1	j	1	0.4300329172983766
20	25	n/a	n/a	n/a	j	4	0.03000000000000001	2	j	1	0.4171855906024575
20	26	n/a	n/a	n/a	f	4	0.04000000000000001	1	f	1	0.3981282808817923
20	27	n/a	n/a	n/a	j	4	0.03000000000000001	1	j	1	0.4359649308025837
20	28	n/a	n/a	n/a	j	4	0.02000000000000001	2	j	1	0.4505413710139692
20	29	n/a	n/a	n/a	j	4	0.03000000000000001	2	j	1	0.4171947138383985
20	30	n/a	n/a	n/a	j	4	0.04000000000000001	1	j	1	0.4286108533851802
20	31	n/a	n/a	n/a	j	4	0.03000000000000001	2	j	1	0.425046855583787
20	32	n/a	n/a	n/a	f	4	0.04000000000000001	1	f	1	0.4288166933692992
20	33	n/a	n/a	n/a	j	4	0.03000000000000001	2	j	1	0.4020640454255044
20	34	n/a	n/a	n/a	j	4	0.04000000000000001	1	j	1	0.4378323159180582
20	35	n/a	n/a	n/a	j	4	0.03000000000000001	2	j	1	0.3946215878240764
20	36	n/a	n/a	n/a	j	4	0.04000000000000001	1	j	1	0.3983141644857824
20	37	n/a	n/a	n/a	j	4	0.03000000000000001	1	j	1	0.3705038060434163
20	38	n/a	n/a	n/a	f	4	0.02000000000000001	1	f	1	0.3908181088045239
20	39	n/a	n/a	n/a	j	4	0.01000000000000001	1	j	1	0.7077886792831123
20	40	n/a	n/a	n/a	j	4	1.040834085586084e-17	2	j	1	0.2963671800680459
20	41	n/a	n/a	n/a	j	4	0.01000000000000001	2	f	0	0.3947393330745399
20	42	n/a	n/a	n/a	j	4	0.02000000000000001	1	j	1	0.4258360043168068
20	43	n/a	n/a	n/a	j	4	0.01000000000000001	2	j	1	0.3496175995096564
20	44	n/a	n/a	n/a	f	4	0.02000000000000001	2	j	0	0.4513903898186982
20	45	n/a	n/a	n/a	j	4	0.03000000000000001	2	f	0	0.2785215326584876
20	46	n/a	n/a	n/a	j	4	0.04000000000000001	0	j	1	0.404636190738529
20	47	n/a	n/a	n/a	j	4	0.05000000000000002	1	j	1	0.3864156408235431
20	48	n/a	n/a	n/a	j	4	0.04000000000000001	1	j	1	0.3921301253139973
20	49	n/a	n/a	n/a	j	4	0.03000000000000001	1	j	1	0.4365177336148918
20	50	n/a	n/a	n/a	f	4	0.02000000000000001	2	f	1	0.3914447519928217
20	51	n/a	n/a	n/a	j	4	0.03000000000000001	1	j	1	0.3234237413853407
20	52	n/a	n/a	n/a	j	4	0.02000000000000001	0	j	1	0.4593602763488889
20	53	n/a	n/a	n/a	j	4	0.03000000000000001	2	j	1	0.3272947887890041
20	54	n/a	n/a	n/a	j	4	0.04000000000000001	0	j	1	0.3883240800350904
20	55	n/a	n/a	n/a	j	4	0.05000000000000002	1	j	1	0.3684291555546224
20	56	n/a	n/a	n/a	f	4	0.04000000000000001	1	f	1	0.3743241066113114
20	57	n/a	n/a	n/a	j	4	0.03000000000000001	1	j	1	0.3711065016686916
20	58	n/a	n/a	n/a	j	4	0.02000000000000001	1	j	1	0.3992812135256827
20	59	n/a	n/a	n/a	j	4	0.01000000000000001	2	j	1	0.3662039735354483
20	60	n/a	n/a	n/a	j	4	0.02000000000000001	1	j	1	0.3691997723653913
20	61	n/a	n/a	n/a	j	4	0.01000000000000001	0	j	1	0.4218740109354258
20	62	n/a	n/a	n/a	f	4	0.02000000000000001	2	f	1	0.3852781038731337
20	63	n/a	n/a	n/a	j	4	0.03000000000000001	1	j	1	0.4151896266266704
20	64	n/a	n/a	n/a	j	4	0.02000000000000001	2	j	1	0.2600902956910431
20	65	n/a	n/a	n/a	j	4	0.03000000000000001	0	j	1	0.4973893668502569
20	66	n/a	n/a	n/a	j	4	0.04000000000000001	2	j	1	0.3988073822110891
20	67	n/a	n/a	n/a	j	4	0.05000000000000002	1	j	1	0.3732247720472515
20	68	n/a	n/a	n/a	f	4	0.04000000000000001	1	f	1	0.4429720449261367
20	69	n/a	n/a	n/a	j	4	0.03000000000000001	2	j	1	0.3989730235189199
20	70	n/a	n/a	n/a	j	4	0.04000000000000001	1	j	1	0.4579524672590196
20	71	n/a	n/a	n/a	j	4	0.03000000000000001	2	j	1	0.440010457765311
21	0	f	1	0.6950334389694035	f	11	0.1	0	f	1	0.8971124808304012
21	1	n/a	n/a	n/a	f	11	0.11	1	f	1	0.9960445640608668
21	2	n/a	n/a	n/a	j	11	0.1	1	j	1	0.8790059695020318
21	3	n/a	n/a	n/a	f	11	0.09000000000000002	0	f	1	0.8599067502655089
21	4	n/a	n/a	n/a	f	11	0.1	0	f	1	0.9041441129520535
21	5	n/a	n/a	n/a	f	11	0.11	1	f	1	0.9067749883979559
21	6	n/a	n/a	n/a	f	11	0.1	1	f	1	0.9820568491704762
21	7	n/a	n/a	n/a	f	11	0.09000000000000002	1	f	1	0.9698823518119752
21	8	n/a	n/a	n/a	j	11	0.08000000000000003	1	j	1	0.7648978866636753
21	9	n/a	n/a	n/a	f	11	0.07000000000000003	0	f	1	0.8330694288015366
21	10	n/a	n/a	n/a	f	11	0.08000000000000003	0	f	1	1.045385163277388
21	11	n/a	n/a	n/a	f	11	0.09000000000000002	1	f	1	0.8417762909084558
21	12	n/a	n/a	n/a	f	11	0.08000000000000003	0	f	1	0.884564220905304
21	13	n/a	n/a	n/a	f	11	0.09000000000000002	0	f	1	0.8328721411526203
21	14	n/a	n/a	n/a	j	11	0.1	0	j	1	0.9096248177811503
21	15	n/a	n/a	n/a	f	11	0.11	1	f	1	0.9066549628041685
21	16	n/a	n/a	n/a	f	11	0.1	1	f	1	0.9247654648497701
21	17	n/a	n/a	n/a	f	11	0.09000000000000002	1	f	1	0.9854837153106928
21	18	n/a	n/a	n/a	f	11	0.08000000000000003	1	f	1	0.8404893632978201
21	19	n/a	n/a	n/a	f	11	0.07000000000000003	0	f	1	0.8133971644565463
21	20	n/a	n/a	n/a	j	11	0.08000000000000003	0	j	1	0.8903944543562829
21	21	n/a	n/a	n/a	f	11	0.09000000000000002	0	f	1	0.9432217897847295
21	22	n/a	n/a	n/a	f	11	0.1	1	f	1	0.8822401096113026
21	23	n/a	n/a	n/a	f	11	0.09000000000000002	0	f	1	1.149160759989172
21	24	n/a	n/a	n/a	f	11	0.1	2	f	1	0.8100957409478724
21	25	n/a	n/a	n/a	f	11	0.11	0	f	1	0.8870622403919697
21	26	n/a	n/a	n/a	j	11	0.12	1	j	1	0.9806632953695953
21	27	n/a	n/a	n/a	f	11	0.11	1	f	1	0.8019456728361547
21	28	n/a	n/a	n/a	f	11	0.1	0	f	1	0.9997924491763115
21	29	n/a	n/a	n/a	f	11	0.11	1	f	1	0.7668881490826607
21	30	n/a	n/a	n/a	f	11	0.1	0	f	1	0.7799900672398508
21	31	n/a	n/a	n/a	f	11	0.11	0	f	1	1.646349418442696
21	32	n/a	n/a	n/a	j	11	0.12	2	j	1	0.7928148708306253
21	33	n/a	n/a	n/a	f	11	0.13	0	f	1	0.7726542358286679
21	34	n/a	n/a	n/a	f	11	0.14	0	f	1	0.8727771700359881
21	35	n/a	n/a	n/a	f	11	0.15	1	f	1	0.7805069480091333
21	36	n/a	n/a	n/a	f	11	0.14	0	f	1	0.8313009720295668
21	37	n/a	n/a	n/a	f	11	0.15	0	f	1	0.8364863158203661
21	38	n/a	n/a	n/a	j	11	0.16	1	j	1	0.7593393502756953
21	39	n/a	n/a	n/a	f	11	0.15	0	f	1	0.7882909518666565
21	40	n/a	n/a	n/a	f	11	0.16	0	f	1	0.7121768924407661
21	41	n/a	n/a	n/a	f	11	0.17	0	f	1	0.7772867777384818
21	42	n/a	n/a	n/a	f	11	0.18	0	j	0	0.8408502964302897
21	43	n/a	n/a	n/a	f	11	0.1900000000000001	0	j	0	0.8528312128037214
21	44	n/a	n/a	n/a	j	11	0.18	0	f	0	0.753242265433073
21	45	n/a	n/a	n/a	f	11	0.17	0	j	0	0.8850719784386456
21	46	n/a	n/a	n/a	f	11	0.18	1	f	1	0.6651968965306878
21	47	n/a	n/a	n/a	f	11	0.17	0	f	1	0.7646296103484929
21	48	n/a	n/a	n/a	f	11	0.18	0	f	1	0.8572556329891086
