blockLoop_thisRepN	trialLoop_thisRepN	firstKey	readyKey_corr	readyKey_rt	targetKey	blockType	margin	outcome	trialResp_keys	trialResp_corr	trialResp_rt
0	0	j	1	2.147490077157272	j	2	0.1	0	j	1	0.2943155893590301
0	1	n/a	n/a	n/a	f	2	0.11	1	f	1	0.4327899923664518
0	2	n/a	n/a	n/a	j	2	0.1	1	f	0	0.5327504206507001
0	3	n/a	n/a	n/a	j	2	0.09000000000000001	2	j	1	0.1243973727687262
0	4	n/a	n/a	n/a	j	2	0.1	0	j	1	0.6078844598087016
0	5	n/a	n/a	n/a	f	2	0.11	2	f	1	0.4836424657842144
0	6	n/a	n/a	n/a	j	2	0.12	1	j	1	0.3774201310588978
0	7	n/a	n/a	n/a	j	2	0.11	1	j	1	0.4372939805907663
0	8	n/a	n/a	n/a	j	2	0.1	1	f	0	0.5443804492824711
0	9	n/a	n/a	n/a	f	2	0.09000000000000001	2	f	1	0.8845527287048753
0	10	n/a	n/a	n/a	j	2	0.1	2	j	1	0.4097688477195334
0	11	n/a	n/a	n/a	j	2	0.11	1	j	1	0.4125132071785629
0	12	n/a	n/a	n/a	j	2	0.1	1	f	0	0.4095262287883088
0	13	n/a	n/a	n/a	f	2	0.09000000000000001	1	f	1	1.160535620496375
0	14	n/a	n/a	n/a	j	2	0.08000000000000002	2	j	1	0.46325363687356
0	15	n/a	n/a	n/a	j	2	0.09000000000000001	1	j	1	0.4360492399719078
0	16	n/a	n/a	n/a	j	2	0.08000000000000002	1	j	1	0.4313445422740187
0	17	n/a	n/a	n/a	f	2	0.07000000000000002	1	f	1	0.3874384970986284
0	18	n/a	n/a	n/a	j	2	0.06000000000000002	1	j	1	0.3289413888705894
0	19	n/a	n/a	n/a	j	2	0.05000000000000002	0	j	1	0.4709028332435992
0	20	n/a	n/a	n/a	j	2	0.06000000000000002	0	f	0	0.3718991959758569
0	21	n/a	n/a	n/a	f	2	0.07000000000000002	0	j	0	0.523224705044413
0	22	n/a	n/a	n/a	j	2	0.06000000000000002	0	f	0	1.032869021699298
0	23	n/a	n/a	n/a	j	2	0.07000000000000002	2	j	1	0.4901008051529061
0	24	n/a	n/a	n/a	j	2	0.08000000000000002	2	j	1	0.4295065113692544
0	25	n/a	n/a	n/a	f	2	0.09000000000000001	2	j	0	0.7371516023413278
0	26	n/a	n/a	n/a	j	2	0.08000000000000002	2	j	1	0.9745771844754927
0	27	n/a	n/a	n/a	j	2	0.09000000000000001	2	j	1	0.498968798230635
0	28	n/a	n/a	n/a	j	2	0.1	2	j	1	0.4650933783559594
0	29	n/a	n/a	n/a	f	2	0.11	1	f	1	0.4799852205032948
0	30	n/a	n/a	n/a	j	2	0.1	1	j	1	0.406886215438135
0	31	n/a	n/a	n/a	j	2	0.09000000000000001	1	j	1	0.556888011546107
0	32	n/a	n/a	n/a	j	2	0.08000000000000002	1	f	0	0.5530793788784649
0	33	n/a	n/a	n/a	f	2	0.09000000000000001	2	f	1	0.8518410814576782
0	34	n/a	n/a	n/a	j	2	0.1	2	j	1	0.4497217152093071
0	35	n/a	n/a	n/a	j	2	0.11	1	j	1	0.447534153383458
0	36	n/a	n/a	n/a	j	2	0.1	1	f	0	0.4513712959305849
0	37	n/a	n/a	n/a	f	2	0.09000000000000001	1	j	0	0.566618142882362
0	38	n/a	n/a	n/a	j	2	0.08000000000000002	1	f	0	0.7934560169524048
0	39	n/a	n/a	n/a	j	2	0.09000000000000001	2	j	1	0.5846440743189305
0	40	n/a	n/a	n/a	j	2	0.1	2	j	1	0.4285018237715121
0	41	n/a	n/a	n/a	f	2	0.11	2	j	0	0.4572064096864779
0	42	n/a	n/a	n/a	j	2	0.1	2	f	0	0.4305191817111336
0	43	n/a	n/a	n/a	j	2	0.09000000000000001	1	j	1	0.6126071187027264
0	44	n/a	n/a	n/a	j	2	0.08000000000000002	2	j	1	0.4094677835528273
0	45	n/a	n/a	n/a	f	2	0.09000000000000001	1	f	1	0.5574519366200548
0	46	n/a	n/a	n/a	j	2	0.08000000000000002	2	j	1	0.5324351015733555
0	47	n/a	n/a	n/a	j	2	0.09000000000000001	2	j	1	0.5300362816487905
0	48	n/a	n/a	n/a	j	2	0.1	2	j	1	1.093831948062871
0	49	n/a	n/a	n/a	f	2	0.11	2	f	1	0.4188232952728868
0	50	n/a	n/a	n/a	j	2	0.12	1	j	1	0.4643760701874271
0	51	n/a	n/a	n/a	j	2	0.11	1	j	1	0.4769805659598205
0	52	n/a	n/a	n/a	j	2	0.1	1	f	0	0.5134016315860208
0	53	n/a	n/a	n/a	f	2	0.09000000000000001	1	j	0	0.4361364801297896
0	54	n/a	n/a	n/a	j	2	0.1	1	j	1	0.4639247590384912
0	55	n/a	n/a	n/a	j	2	0.09000000000000001	1	j	1	0.5112944675493054
0	56	n/a	n/a	n/a	j	2	0.08000000000000002	2	j	1	0.4266121900000144
0	57	n/a	n/a	n/a	f	2	0.09000000000000001	2	j	0	0.5015754550695419
0	58	n/a	n/a	n/a	j	2	0.08000000000000002	2	j	1	0.7310841331782285
0	59	n/a	n/a	n/a	j	2	0.09000000000000001	2	j	1	0.5130737681174651
0	60	n/a	n/a	n/a	j	2	0.1	2	j	1	0.4857134222984314
0	61	n/a	n/a	n/a	f	2	0.11	1	f	1	0.7850866614317056
0	62	n/a	n/a	n/a	j	2	0.1	2	j	1	0.4548617585387547
0	63	n/a	n/a	n/a	j	2	0.11	1	j	1	0.4748354838229716
0	64	n/a	n/a	n/a	j	2	0.1	1	j	1	0.5826771788124461
0	65	n/a	n/a	n/a	f	2	0.09000000000000001	2	f	1	0.477732085972093
0	66	n/a	n/a	n/a	j	2	0.1	1	j	1	0.4977528525341768
0	67	n/a	n/a	n/a	j	2	0.09000000000000001	2	j	1	0.51827710334328
0	68	n/a	n/a	n/a	j	2	0.1	2	f	0	1.209734521864448
0	69	n/a	n/a	n/a	f	2	0.11	2	j	0	0.5108471477869898
0	70	n/a	n/a	n/a	j	2	0.12	2	j	1	0.4815843387332279
0	71	n/a	n/a	n/a	j	2	0.13	1	j	1	0.548572824744042
1	0	f	1	1.570278524275636	f	3	0.1	2	f	1	0.3647705896873958
1	1	n/a	n/a	n/a	f	3	0.11	1	f	1	0.3275090533134062
1	2	n/a	n/a	n/a	j	3	0.1	1	j	1	0.4504070923430845
1	3	n/a	n/a	n/a	f	3	0.09000000000000001	1	f	1	0.3864212651678827
1	4	n/a	n/a	n/a	f	3	0.08000000000000002	1	f	1	0.4134332204703242
1	5	n/a	n/a	n/a	f	3	0.07000000000000002	1	f	1	0.409409908548696
1	6	n/a	n/a	n/a	f	3	0.06000000000000002	1	j	0	0.4002160477393772
1	7	n/a	n/a	n/a	f	3	0.05000000000000002	1	f	1	0.7388142975687515
1	8	n/a	n/a	n/a	j	3	0.04000000000000001	1	f	0	0.5259359930641949
1	9	n/a	n/a	n/a	f	3	0.05000000000000002	1	j	0	0.4262655100610573
1	10	n/a	n/a	n/a	f	3	0.06000000000000002	1	f	1	0.4622227202053182
1	11	n/a	n/a	n/a	f	3	0.05000000000000002	2	f	1	0.4591322509804741
1	12	n/a	n/a	n/a	f	3	0.06000000000000002	2	f	1	0.3432496340828948
1	13	n/a	n/a	n/a	f	3	0.07000000000000002	1	f	1	0.4210607493878342
1	14	n/a	n/a	n/a	j	3	0.06000000000000002	1	j	1	0.4612140412209556
1	15	n/a	n/a	n/a	f	3	0.05000000000000002	2	f	1	0.4191001260478515
1	16	n/a	n/a	n/a	f	3	0.06000000000000002	1	f	1	0.4162220553553198
1	17	n/a	n/a	n/a	f	3	0.05000000000000002	1	f	1	0.454032121488126
1	18	n/a	n/a	n/a	f	3	0.04000000000000001	1	j	0	0.3950266823812854
1	19	n/a	n/a	n/a	f	3	0.05000000000000002	1	f	1	0.5680658737546764
1	20	n/a	n/a	n/a	j	3	0.04000000000000001	1	f	0	0.4379956083430443
1	21	n/a	n/a	n/a	f	3	0.05000000000000002	1	j	0	0.5536005391622894
1	22	n/a	n/a	n/a	f	3	0.06000000000000002	2	f	1	0.05992402692208998
1	23	n/a	n/a	n/a	f	3	0.07000000000000002	0	f	1	0.4919570823840331
1	24	n/a	n/a	n/a	f	3	0.08000000000000002	2	f	1	0.9116624728776515
1	25	n/a	n/a	n/a	f	3	0.09000000000000001	2	f	1	0.6584293117921334
1	26	n/a	n/a	n/a	j	3	0.1	2	j	1	0.4698767632653471
1	27	n/a	n/a	n/a	f	3	0.11	1	f	1	0.4187922195415013
1	28	n/a	n/a	n/a	f	3	0.1	1	f	1	0.4160122227331158
1	29	n/a	n/a	n/a	f	3	0.09000000000000001	1	f	1	0.3890544361784123
1	30	n/a	n/a	n/a	f	3	0.08000000000000002	1	j	0	0.5363854282768443
1	31	n/a	n/a	n/a	f	3	0.07000000000000002	2	f	1	0.4110018993378617
1	32	n/a	n/a	n/a	j	3	0.08000000000000002	2	f	0	0.4327828648965806
1	33	n/a	n/a	n/a	f	3	0.07000000000000002	1	f	1	0.4045917416224256
1	34	n/a	n/a	n/a	f	3	0.06000000000000002	1	f	1	0.4087958060845267
1	35	n/a	n/a	n/a	f	3	0.05000000000000002	1	f	1	0.4451646986417472
1	36	n/a	n/a	n/a	f	3	0.04000000000000001	2	f	1	0.4121123584918678
1	37	n/a	n/a	n/a	f	3	0.05000000000000002	1	f	1	0.4406464554485865
1	38	n/a	n/a	n/a	j	3	0.04000000000000001	2	j	1	0.4454292701557279
1	39	n/a	n/a	n/a	f	3	0.05000000000000002	2	f	1	0.4101320633781143
1	40	n/a	n/a	n/a	f	3	0.06000000000000002	1	f	1	0.4214322328916751
1	41	n/a	n/a	n/a	f	3	0.05000000000000002	1	f	1	0.443627731903689
1	42	n/a	n/a	n/a	f	3	0.04000000000000001	2	f	1	0.4314152467413805
1	43	n/a	n/a	n/a	f	3	0.05000000000000002	2	j	0	0.4633765143807977
1	44	n/a	n/a	n/a	j	3	0.04000000000000001	2	f	0	0.4473616687173489
1	45	n/a	n/a	n/a	f	3	0.05000000000000002	2	f	1	0.4853567638783716
1	46	n/a	n/a	n/a	f	3	0.06000000000000002	2	f	1	0.4513473476399668
1	47	n/a	n/a	n/a	f	3	0.07000000000000002	1	f	1	0.4355426196707413
1	48	n/a	n/a	n/a	f	3	0.06000000000000002	1	j	0	0.4387938845029566
1	49	n/a	n/a	n/a	f	3	0.05000000000000002	2	f	1	0.4192860103794374
1	50	n/a	n/a	n/a	j	3	0.06000000000000002	2	f	0	0.4331942622084171
1	51	n/a	n/a	n/a	f	3	0.05000000000000002	1	f	1	0.3642180685128551
1	52	n/a	n/a	n/a	f	3	0.04000000000000001	1	f	1	0.4787296460999642
1	53	n/a	n/a	n/a	f	3	0.03000000000000001	2	f	1	0.4132767013506964
1	54	n/a	n/a	n/a	f	3	0.04000000000000001	1	f	1	0.4082749308727216
1	55	n/a	n/a	n/a	f	3	0.03000000000000001	1	f	1	0.3720873610873241
1	56	n/a	n/a	n/a	j	3	0.02000000000000001	1	f	0	0.4585965506557841
1	57	n/a	n/a	n/a	f	3	0.01000000000000001	1	j	0	0.4557512662431691
1	58	n/a	n/a	n/a	f	3	0.02000000000000001	1	j	0	0.4059607852541376
1	59	n/a	n/a	n/a	f	3	0.03000000000000001	1	f	1	0.4780981526128016
1	60	n/a	n/a	n/a	f	3	0.02000000000000001	2	f	1	0.4399827458546497
1	61	n/a	n/a	n/a	f	3	0.03000000000000001	2	f	1	0.44902322354028
1	62	n/a	n/a	n/a	j	3	0.04000000000000001	2	j	1	0.4525758376694284
1	63	n/a	n/a	n/a	f	3	0.05000000000000002	2	f	1	0.402884856070159
1	64	n/a	n/a	n/a	f	3	0.06000000000000002	1	f	1	0.470882591267582
1	65	n/a	n/a	n/a	f	3	0.05000000000000002	2	f	1	0.4177601624978706
1	66	n/a	n/a	n/a	f	3	0.06000000000000002	1	f	1	0.4568471854145173
1	67	n/a	n/a	n/a	f	3	0.05000000000000002	1	j	0	0.4227451121259946
1	68	n/a	n/a	n/a	j	3	0.06000000000000002	1	f	0	0.433708009950351
1	69	n/a	n/a	n/a	f	3	0.05000000000000002	1	f	1	0.4317975640005898
1	70	n/a	n/a	n/a	f	3	0.04000000000000001	2	f	1	1.157642439560732
1	71	n/a	n/a	n/a	f	3	0.05000000000000002	2	f	1	0.3687317501171492
2	0	f	1	1.417042854300234	f	5	0.1	0	f	1	0.5703996911761351
2	1	n/a	n/a	n/a	j	5	0.11	1	j	1	0.6532522056659218
2	2	n/a	n/a	n/a	f	5	0.1	1	f	1	0.5073404345603194
2	3	n/a	n/a	n/a	f	5	0.09000000000000001	1	f	1	0.6672243195935152
2	4	n/a	n/a	n/a	f	5	0.08000000000000002	1	j	0	0.5043366353493184
2	5	n/a	n/a	n/a	j	5	0.09000000000000001	1	f	0	0.6181696781713981
2	6	n/a	n/a	n/a	f	5	0.08000000000000002	1	f	1	0.6389781722682528
2	7	n/a	n/a	n/a	f	5	0.07000000000000002	1	f	1	0.6333637248608284
2	8	n/a	n/a	n/a	f	5	0.06000000000000002	1	f	1	0.6929901087714825
2	9	n/a	n/a	n/a	j	5	0.05000000000000002	2	j	1	0.6572401653975248
2	10	n/a	n/a	n/a	f	5	0.06000000000000002	2	f	1	0.6299710510938894
2	11	n/a	n/a	n/a	f	5	0.07000000000000002	1	f	1	0.5865414057334419
2	12	n/a	n/a	n/a	f	5	0.06000000000000002	1	f	1	0.5189872840419412
2	13	n/a	n/a	n/a	j	5	0.05000000000000002	0	j	1	0.5935933204891626
2	14	n/a	n/a	n/a	f	5	0.06000000000000002	1	f	1	0.5519213082152419
2	15	n/a	n/a	n/a	f	5	0.05000000000000002	1	f	1	0.6057137187744956
2	16	n/a	n/a	n/a	f	5	0.04000000000000001	1	j	0	0.561839319561841
2	17	n/a	n/a	n/a	j	5	0.03000000000000001	1	f	0	0.5652719071076717
2	18	n/a	n/a	n/a	f	5	0.02000000000000001	0	f	1	0.5553995115915313
2	19	n/a	n/a	n/a	f	5	0.03000000000000001	1	f	1	0.5529485185979865
2	20	n/a	n/a	n/a	f	5	0.02000000000000001	0	f	1	0.5635362266330048
2	21	n/a	n/a	n/a	j	5	0.03000000000000001	1	j	1	0.650715398020111
2	22	n/a	n/a	n/a	f	5	0.02000000000000001	2	f	1	0.512739062338369
2	23	n/a	n/a	n/a	f	5	0.03000000000000001	0	f	1	0.5746214317623526
2	24	n/a	n/a	n/a	f	5	0.04000000000000001	1	f	1	0.5635695831733756
2	25	n/a	n/a	n/a	j	5	0.03000000000000001	1	j	1	0.6165158209914807
2	26	n/a	n/a	n/a	f	5	0.02000000000000001	2	f	1	0.474317459622398
2	27	n/a	n/a	n/a	f	5	0.03000000000000001	0	f	1	0.5993930820259266
2	28	n/a	n/a	n/a	f	5	0.04000000000000001	1	f	1	0.5554887474281713
2	29	n/a	n/a	n/a	j	5	0.03000000000000001	0	j	1	0.6233348101377487
2	30	n/a	n/a	n/a	f	5	0.04000000000000001	1	f	1	0.5413301789958496
2	31	n/a	n/a	n/a	f	5	0.03000000000000001	0	f	1	0.5764483438397292
2	32	n/a	n/a	n/a	f	5	0.04000000000000001	1	f	1	0.5651342044584453
2	33	n/a	n/a	n/a	j	5	0.03000000000000001	1	j	1	0.5791291263012681
2	34	n/a	n/a	n/a	f	5	0.02000000000000001	1	f	1	0.5429190336726606
2	35	n/a	n/a	n/a	f	5	0.01000000000000001	0	f	1	0.5971861334983259
2	36	n/a	n/a	n/a	f	5	0.02000000000000001	1	f	1	0.5501414374157321
2	37	n/a	n/a	n/a	j	5	0.01000000000000001	0	j	1	0.5700823763909284
2	38	n/a	n/a	n/a	f	5	0.02000000000000001	1	f	1	0.5100711093109567
2	39	n/a	n/a	n/a	f	5	0.01000000000000001	0	f	1	0.5620229230553377
2	40	n/a	n/a	n/a	f	5	0.02000000000000001	0	f	1	0.5249937420885544
2	41	n/a	n/a	n/a	j	5	0.03000000000000001	0	j	1	0.57716280099703
2	42	n/a	n/a	n/a	f	5	0.04000000000000001	1	f	1	0.5720042262983043
2	43	n/a	n/a	n/a	f	5	0.03000000000000001	1	f	1	0.5669083732936997
2	44	n/a	n/a	n/a	f	5	0.02000000000000001	1	f	1	0.4757438080850989
2	45	n/a	n/a	n/a	j	5	0.01000000000000001	0	j	1	0.5767571056494489
2	46	n/a	n/a	n/a	f	5	0.02000000000000001	1	f	1	0.5744900013087317
2	47	n/a	n/a	n/a	f	5	0.01000000000000001	0	f	1	0.5728800492943265
2	48	n/a	n/a	n/a	f	5	0.02000000000000001	1	f	1	0.5528678356786259
2	49	n/a	n/a	n/a	j	5	0.01000000000000001	0	j	1	0.5738157430314459
2	50	n/a	n/a	n/a	f	5	0.02000000000000001	1	f	1	1.227341073186835
2	51	n/a	n/a	n/a	f	5	0.01000000000000001	2	f	1	0.5675139228114858
2	52	n/a	n/a	n/a	f	5	0.02000000000000001	0	f	1	0.5265070456371177
2	53	n/a	n/a	n/a	j	5	0.03000000000000001	0	j	1	0.5426000083098188
2	54	n/a	n/a	n/a	f	5	0.04000000000000001	0	f	1	0.5514711374707986
2	55	n/a	n/a	n/a	f	5	0.05000000000000002	1	f	1	0.5494127253186889
2	56	n/a	n/a	n/a	f	5	0.04000000000000001	1	f	1	0.5446150854695588
2	57	n/a	n/a	n/a	j	5	0.03000000000000001	0	j	1	0.5401934907422401
2	58	n/a	n/a	n/a	f	5	0.04000000000000001	0	f	1	0.5673853433108889
2	59	n/a	n/a	n/a	f	5	0.05000000000000002	1	f	1	0.5733487514662556
2	60	n/a	n/a	n/a	f	5	0.04000000000000001	1	f	1	0.5233572759025265
2	61	n/a	n/a	n/a	j	5	0.03000000000000001	0	j	1	0.5684045709203929
2	62	n/a	n/a	n/a	f	5	0.04000000000000001	1	f	1	0.6282042948587332
2	63	n/a	n/a	n/a	f	5	0.03000000000000001	2	f	1	0.5211491869704332
2	64	n/a	n/a	n/a	f	5	0.04000000000000001	0	f	1	0.5592075740278233
2	65	n/a	n/a	n/a	j	5	0.05000000000000002	1	j	1	0.5551460588758346
2	66	n/a	n/a	n/a	f	5	0.04000000000000001	1	f	1	0.577259449462872
2	67	n/a	n/a	n/a	f	5	0.03000000000000001	1	f	1	0.5501642453309614
2	68	n/a	n/a	n/a	f	5	0.02000000000000001	0	f	1	0.554612639331026
2	69	n/a	n/a	n/a	j	5	0.03000000000000001	1	j	1	0.5522038409544621
2	70	n/a	n/a	n/a	f	5	0.02000000000000001	0	f	1	0.5399887899111491
2	71	n/a	n/a	n/a	f	5	0.03000000000000001	0	f	1	0.5689647897670511
3	0	j	1	1.042745693732286	j	4	0.1	2	j	1	0.4311233057233039
3	1	n/a	n/a	n/a	j	4	0.11	1	j	1	0.3707106197543908
3	2	n/a	n/a	n/a	f	4	0.1	1	f	1	0.4162283275218215
3	3	n/a	n/a	n/a	j	4	0.09000000000000001	1	j	1	0.4037643853516784
3	4	n/a	n/a	n/a	j	4	0.08000000000000002	1	j	1	0.4580460251600016
3	5	n/a	n/a	n/a	j	4	0.07000000000000002	1	j	1	0.3750455445260741
3	6	n/a	n/a	n/a	j	4	0.06000000000000002	1	j	1	0.4176834709651303
3	7	n/a	n/a	n/a	j	4	0.05000000000000002	1	j	1	0.3569879671267699
3	8	n/a	n/a	n/a	f	4	0.04000000000000001	1	f	1	0.433909289597068
3	9	n/a	n/a	n/a	j	4	0.03000000000000001	2	j	1	0.369047639425844
3	10	n/a	n/a	n/a	j	4	0.04000000000000001	1	j	1	0.4628111638012342
3	11	n/a	n/a	n/a	j	4	0.03000000000000001	2	j	1	0.3697361526137684
3	12	n/a	n/a	n/a	j	4	0.04000000000000001	2	f	0	0.414518305886304
3	13	n/a	n/a	n/a	j	4	0.03000000000000001	2	f	0	0.4197224964154884
3	14	n/a	n/a	n/a	f	4	0.02000000000000001	2	j	0	0.4396269427379593
3	15	n/a	n/a	n/a	j	4	0.03000000000000001	2	f	0	0.6357805059815291
3	16	n/a	n/a	n/a	j	4	0.04000000000000001	2	f	0	0.4395739143947139
3	17	n/a	n/a	n/a	j	4	0.05000000000000002	2	j	1	0.4023408878711052
3	18	n/a	n/a	n/a	j	4	0.06000000000000002	1	j	1	0.3984914861212019
3	19	n/a	n/a	n/a	j	4	0.05000000000000002	1	j	1	0.8836586593824904
3	20	n/a	n/a	n/a	f	4	0.04000000000000001	2	f	1	0.3916103454539552
3	21	n/a	n/a	n/a	j	4	0.05000000000000002	1	j	1	0.4052397708001081
3	22	n/a	n/a	n/a	j	4	0.04000000000000001	1	j	1	0.4425272511434741
3	23	n/a	n/a	n/a	j	4	0.03000000000000001	2	j	1	0.390541225526249
3	24	n/a	n/a	n/a	j	4	0.04000000000000001	2	f	0	0.4420582638995256
3	25	n/a	n/a	n/a	j	4	0.03000000000000001	2	j	1	0.478457376913866
3	26	n/a	n/a	n/a	f	4	0.04000000000000001	2	j	0	0.329478229599772
3	27	n/a	n/a	n/a	j	4	0.05000000000000002	2	f	0	0.4758592730213422
3	28	n/a	n/a	n/a	j	4	0.06000000000000002	2	j	1	0.4713872158317827
3	29	n/a	n/a	n/a	j	4	0.07000000000000002	2	j	1	0.4608305835572537
3	30	n/a	n/a	n/a	j	4	0.08000000000000002	1	j	1	0.4363006969506387
3	31	n/a	n/a	n/a	j	4	0.07000000000000002	1	j	1	0.4399297174823005
3	32	n/a	n/a	n/a	f	4	0.06000000000000002	1	f	1	0.4113309031527024
3	33	n/a	n/a	n/a	j	4	0.05000000000000002	1	j	1	0.3361723455600441
3	34	n/a	n/a	n/a	j	4	0.04000000000000001	0	j	1	0.4592830681649502
3	35	n/a	n/a	n/a	j	4	0.05000000000000002	2	j	1	0.4479221726360265
3	36	n/a	n/a	n/a	j	4	0.06000000000000002	2	j	1	0.4112362504238263
3	37	n/a	n/a	n/a	j	4	0.07000000000000002	2	f	0	0.4711770981375594
3	38	n/a	n/a	n/a	f	4	0.06000000000000002	2	j	0	0.3949522716575302
3	39	n/a	n/a	n/a	j	4	0.07000000000000002	1	j	1	0.4402607170050032
3	40	n/a	n/a	n/a	j	4	0.06000000000000002	1	j	1	0.4280664781399537
3	41	n/a	n/a	n/a	j	4	0.05000000000000002	1	j	1	0.4390527540817857
3	42	n/a	n/a	n/a	j	4	0.04000000000000001	2	j	1	0.451001237903256
3	43	n/a	n/a	n/a	j	4	0.05000000000000002	2	j	1	0.4626637677720282
3	44	n/a	n/a	n/a	f	4	0.06000000000000002	2	f	1	0.4589845698792487
3	45	n/a	n/a	n/a	j	4	0.07000000000000002	2	j	1	0.3930580762971658
3	46	n/a	n/a	n/a	j	4	0.08000000000000002	1	j	1	0.4435333642177284
3	47	n/a	n/a	n/a	j	4	0.07000000000000002	1	j	1	0.4710037581680808
3	48	n/a	n/a	n/a	j	4	0.06000000000000002	2	j	1	0.4589095889532473
3	49	n/a	n/a	n/a	j	4	0.07000000000000002	2	j	1	0.4409757443936542
3	50	n/a	n/a	n/a	f	4	0.08000000000000002	1	f	1	0.4457343257090542
3	51	n/a	n/a	n/a	j	4	0.07000000000000002	1	j	1	0.4108453801891301
3	52	n/a	n/a	n/a	j	4	0.06000000000000002	1	j	1	0.4249372355407104
3	53	n/a	n/a	n/a	j	4	0.05000000000000002	1	j	1	0.4777343667519744
3	54	n/a	n/a	n/a	j	4	0.04000000000000001	1	f	0	0.4328567054471932
3	55	n/a	n/a	n/a	j	4	0.05000000000000002	1	f	0	0.5918334065936506
3	56	n/a	n/a	n/a	f	4	0.06000000000000002	1	j	0	0.4269360620819498
3	57	n/a	n/a	n/a	j	4	0.07000000000000002	1	j	1	0.4663683394610416
3	58	n/a	n/a	n/a	j	4	0.06000000000000002	2	j	1	0.3746350024885032
3	59	n/a	n/a	n/a	j	4	0.07000000000000002	1	j	1	0.457512605615193
3	60	n/a	n/a	n/a	j	4	0.06000000000000002	2	j	1	0.396099793666508
3	61	n/a	n/a	n/a	j	4	0.07000000000000002	1	j	1	0.4365721108333673
3	62	n/a	n/a	n/a	f	4	0.06000000000000002	1	f	1	0.433442868234124
3	63	n/a	n/a	n/a	j	4	0.05000000000000002	1	j	1	0.4362981310696341
3	64	n/a	n/a	n/a	j	4	0.04000000000000001	2	j	1	0.3815073050791398
3	65	n/a	n/a	n/a	j	4	0.05000000000000002	1	j	1	0.4664772471296601
3	66	n/a	n/a	n/a	j	4	0.04000000000000001	2	j	1	0.4052218096039724
3	67	n/a	n/a	n/a	j	4	0.05000000000000002	1	j	1	0.4171332305995747
3	68	n/a	n/a	n/a	f	4	0.04000000000000001	1	f	1	0.4462959700031206
3	69	n/a	n/a	n/a	j	4	0.03000000000000001	2	j	1	0.4172911752248183
3	70	n/a	n/a	n/a	j	4	0.04000000000000001	1	j	1	0.493370316340588
3	71	n/a	n/a	n/a	j	4	0.03000000000000001	2	j	1	0.395185197237879
4	0	f	1	1.385221570119029	f	1	0.1	1	f	1	0.3592764538771007
4	1	n/a	n/a	n/a	j	1	0.09000000000000001	1	j	1	0.4273962112492882
4	2	n/a	n/a	n/a	f	1	0.08000000000000002	1	f	1	0.384501410939265
4	3	n/a	n/a	n/a	f	1	0.07000000000000002	1	f	1	0.3993467819818761
4	4	n/a	n/a	n/a	f	1	0.06000000000000002	1	f	1	0.4523802599869668
4	5	n/a	n/a	n/a	j	1	0.05000000000000002	2	j	1	0.3786041456623934
4	6	n/a	n/a	n/a	f	1	0.06000000000000002	1	f	1	0.3973145989293698
4	7	n/a	n/a	n/a	f	1	0.05000000000000002	1	f	1	0.4257714341511019
4	8	n/a	n/a	n/a	f	1	0.04000000000000001	1	f	1	0.4073962568654679
4	9	n/a	n/a	n/a	j	1	0.03000000000000001	1	j	1	0.3551103075151332
4	10	n/a	n/a	n/a	f	1	0.02000000000000001	0	f	1	0.3683437308645807
4	11	n/a	n/a	n/a	f	1	0.03000000000000001	1	f	1	0.4351890973630361
4	12	n/a	n/a	n/a	f	1	0.02000000000000001	2	f	1	0.3782332323607989
4	13	n/a	n/a	n/a	j	1	0.03000000000000001	1	j	1	0.3932570751348976
4	14	n/a	n/a	n/a	f	1	0.02000000000000001	1	f	1	0.3801493802748155
4	15	n/a	n/a	n/a	f	1	0.01000000000000001	1	f	1	0.3932225782191381
4	16	n/a	n/a	n/a	f	1	1.040834085586084e-17	2	f	1	0.3890863672131673
4	17	n/a	n/a	n/a	j	1	0.01000000000000001	1	j	1	0.3626386220566928
4	18	n/a	n/a	n/a	f	1	1.040834085586084e-17	0	f	1	0.5100463057169691
4	19	n/a	n/a	n/a	f	1	0.01000000000000001	2	f	1	0.3538687029504217
4	20	n/a	n/a	n/a	f	1	0.02000000000000001	0	f	1	0.3830616628692951
4	21	n/a	n/a	n/a	j	1	0.03000000000000001	1	j	1	0.3744442714960314
4	22	n/a	n/a	n/a	f	1	0.02000000000000001	1	f	1	0.3628935002489015
4	23	n/a	n/a	n/a	f	1	0.01000000000000001	0	f	1	0.40699084661901
4	24	n/a	n/a	n/a	f	1	0.02000000000000001	2	f	1	0.3760793121764436
4	25	n/a	n/a	n/a	j	1	0.03000000000000001	1	j	1	0.4136524613422807
4	26	n/a	n/a	n/a	f	1	0.02000000000000001	2	f	1	0.3788781254552305
4	27	n/a	n/a	n/a	f	1	0.03000000000000001	1	f	1	0.3893948439217638
4	28	n/a	n/a	n/a	f	1	0.02000000000000001	1	f	1	0.3452484605950303
4	29	n/a	n/a	n/a	j	1	0.01000000000000001	0	j	1	0.3689740839763544
4	30	n/a	n/a	n/a	f	1	0.02000000000000001	1	f	1	0.2928273745055776
4	31	n/a	n/a	n/a	f	1	0.01000000000000001	0	f	1	0.4718670368310995
4	32	n/a	n/a	n/a	f	1	0.02000000000000001	2	f	1	0.3965397008578293
4	33	n/a	n/a	n/a	j	1	0.03000000000000001	1	j	1	0.3757517338090111
4	34	n/a	n/a	n/a	f	1	0.02000000000000001	1	f	1	0.3892528648138978
4	35	n/a	n/a	n/a	f	1	0.01000000000000001	1	f	1	0.3767381750803906
4	36	n/a	n/a	n/a	f	1	1.040834085586084e-17	0	f	1	0.3984547083964571
4	37	n/a	n/a	n/a	j	1	0.01000000000000001	2	j	1	0.4413760228489991
4	38	n/a	n/a	n/a	f	1	0.02000000000000001	2	f	1	0.5033567513455637
4	39	n/a	n/a	n/a	f	1	0.03000000000000001	2	f	1	0.3152195915172342
4	40	n/a	n/a	n/a	f	1	0.04000000000000001	0	f	1	0.4330796525755432
4	41	n/a	n/a	n/a	j	1	0.05000000000000002	1	j	1	0.4141488180612214
4	42	n/a	n/a	n/a	f	1	0.04000000000000001	1	f	1	0.3845678389479872
4	43	n/a	n/a	n/a	f	1	0.03000000000000001	1	f	1	0.4144535885134246
4	44	n/a	n/a	n/a	f	1	0.02000000000000001	2	f	1	0.3724400280625559
4	45	n/a	n/a	n/a	j	1	0.03000000000000001	1	j	1	0.3700948066834826
4	46	n/a	n/a	n/a	f	1	0.02000000000000001	1	f	1	0.3213400890526827
4	47	n/a	n/a	n/a	f	1	0.01000000000000001	0	f	1	0.44703893706901
4	48	n/a	n/a	n/a	f	1	0.02000000000000001	2	f	1	0.3733400844503194
4	49	n/a	n/a	n/a	j	1	0.03000000000000001	1	j	1	0.4533401871158276
4	50	n/a	n/a	n/a	f	1	0.02000000000000001	2	f	1	0.4033370225224644
4	51	n/a	n/a	n/a	f	1	0.03000000000000001	1	f	1	0.3501262131612748
4	52	n/a	n/a	n/a	f	1	0.02000000000000001	0	f	1	0.396135145885637
4	53	n/a	n/a	n/a	j	1	0.03000000000000001	1	j	1	0.4419319652079139
4	54	n/a	n/a	n/a	f	1	0.02000000000000001	2	f	1	0.3301838487095665
4	55	n/a	n/a	n/a	f	1	0.03000000000000001	0	f	1	0.4573044836288318
4	56	n/a	n/a	n/a	f	1	0.04000000000000001	2	f	1	0.3811398129619192
4	57	n/a	n/a	n/a	j	1	0.05000000000000002	1	j	1	0.4500569912197534
4	58	n/a	n/a	n/a	f	1	0.04000000000000001	2	f	1	0.3581702711817343
4	59	n/a	n/a	n/a	f	1	0.05000000000000002	1	f	1	0.4020418194122612
4	60	n/a	n/a	n/a	f	1	0.04000000000000001	1	f	1	0.4630375320848543
4	61	n/a	n/a	n/a	j	1	0.03000000000000001	2	j	1	0.4280564996879548
4	62	n/a	n/a	n/a	f	1	0.04000000000000001	2	f	1	0.3780373695772141
4	63	n/a	n/a	n/a	f	1	0.05000000000000002	1	f	1	0.4149200098763686
4	64	n/a	n/a	n/a	f	1	0.04000000000000001	1	f	1	0.3714473146246746
4	65	n/a	n/a	n/a	j	1	0.03000000000000001	1	j	1	0.4388152669125702
4	66	n/a	n/a	n/a	f	1	0.02000000000000001	2	f	1	0.4109098124608863
4	67	n/a	n/a	n/a	f	1	0.03000000000000001	1	f	1	0.3606246853014454
4	68	n/a	n/a	n/a	f	1	0.02000000000000001	0	f	1	0.413707200292265
4	69	n/a	n/a	n/a	j	1	0.03000000000000001	1	j	1	0.4188526604266372
4	70	n/a	n/a	n/a	f	1	0.02000000000000001	2	f	1	0.350846657413058
4	71	n/a	n/a	n/a	f	1	0.03000000000000001	0	f	1	0.3939125169126783
5	0	j	1	1.63680828656652	j	10	0.1	0	j	1	0.8281969963281881
5	1	n/a	n/a	n/a	f	10	0.11	0	f	1	0.8001159210980404
5	2	n/a	n/a	n/a	j	10	0.12	0	j	1	0.8209609078476205
5	3	n/a	n/a	n/a	j	10	0.13	0	j	1	0.9069195719494019
5	4	n/a	n/a	n/a	j	10	0.14	1	j	1	0.9210128528065979
5	5	n/a	n/a	n/a	f	10	0.13	1	f	1	0.8687368819082621
5	6	n/a	n/a	n/a	j	10	0.12	1	j	1	0.9199514306092169
5	7	n/a	n/a	n/a	j	10	0.11	1	j	1	0.8936716085590888
5	8	n/a	n/a	n/a	j	10	0.1	1	j	1	0.8433015220507514
5	9	n/a	n/a	n/a	f	10	0.09000000000000002	0	f	1	0.8703026435978245
5	10	n/a	n/a	n/a	j	10	0.1	0	j	1	0.8357013626082335
5	11	n/a	n/a	n/a	j	10	0.11	0	j	1	0.8478916100575589
5	12	n/a	n/a	n/a	j	10	0.12	0	j	1	0.8267093516478781
5	13	n/a	n/a	n/a	f	10	0.13	0	f	1	0.9024432382720988
5	14	n/a	n/a	n/a	j	10	0.14	1	j	1	0.9611612979788333
5	15	n/a	n/a	n/a	j	10	0.13	1	j	1	0.9019993397232611
5	16	n/a	n/a	n/a	j	10	0.12	1	f	0	0.9322086762113031
5	17	n/a	n/a	n/a	f	10	0.11	1	j	0	0.9508344552014023
5	18	n/a	n/a	n/a	j	10	0.1	1	j	1	0.9887175065814517
5	19	n/a	n/a	n/a	j	10	0.09000000000000002	1	j	1	0.9540187218517531
5	20	n/a	n/a	n/a	j	10	0.08000000000000003	1	j	1	0.93563014495885
5	21	n/a	n/a	n/a	f	10	0.07000000000000003	1	f	1	0.949030351039255
5	22	n/a	n/a	n/a	j	10	0.06000000000000003	1	j	1	0.8739558975212276
5	23	n/a	n/a	n/a	j	10	0.05000000000000003	0	j	1	0.938586902921088
5	24	n/a	n/a	n/a	j	10	0.06000000000000003	1	j	1	1.029859235393815
5	25	n/a	n/a	n/a	f	10	0.05000000000000003	1	f	1	0.9285816513875034
5	26	n/a	n/a	n/a	j	10	0.04000000000000003	0	j	1	1.564532076154137
5	27	n/a	n/a	n/a	j	10	0.05000000000000003	2	j	1	0.7593930021976121
5	28	n/a	n/a	n/a	j	10	0.06000000000000003	0	j	1	0.8423130850424059
5	29	n/a	n/a	n/a	f	10	0.07000000000000003	0	f	1	0.8770457965147216
5	30	n/a	n/a	n/a	j	10	0.08000000000000003	0	j	1	0.8415467399172485
5	31	n/a	n/a	n/a	j	10	0.09000000000000002	0	j	1	0.8085787890013307
5	32	n/a	n/a	n/a	j	10	0.1	0	j	1	1.043376902089221
5	33	n/a	n/a	n/a	f	10	0.11	1	f	1	0.9793166641902644
5	34	n/a	n/a	n/a	j	10	0.1	1	j	1	0.8484250296023674
5	35	n/a	n/a	n/a	j	10	0.09000000000000002	0	j	1	0.8516326743701939
5	36	n/a	n/a	n/a	j	10	0.1	0	j	1	0.7933305735932663
5	37	n/a	n/a	n/a	f	10	0.11	0	f	1	0.965992009267211
5	38	n/a	n/a	n/a	j	10	0.12	1	j	1	0.8740385761484504
5	39	n/a	n/a	n/a	j	10	0.11	0	j	1	0.892953445087187
5	40	n/a	n/a	n/a	j	10	0.12	1	j	1	1.01900125388056
5	41	n/a	n/a	n/a	f	10	0.11	1	f	1	0.8428658912889659
5	42	n/a	n/a	n/a	j	10	0.1	0	j	1	0.8890207945369184
5	43	n/a	n/a	n/a	j	10	0.11	1	j	1	0.9333131483581383
5	44	n/a	n/a	n/a	j	10	0.1	1	j	1	0.953210467210738
5	45	n/a	n/a	n/a	f	10	0.09000000000000002	1	f	1	0.9696931597427465
5	46	n/a	n/a	n/a	j	10	0.08000000000000003	1	j	1	0.9016247201070655
5	47	n/a	n/a	n/a	j	10	0.07000000000000003	0	j	1	0.937053642468527
5	48	n/a	n/a	n/a	j	10	0.08000000000000003	1	j	1	0.903537161735585
5	49	n/a	n/a	n/a	f	10	0.07000000000000003	0	f	1	0.9485898736165836
5	50	n/a	n/a	n/a	j	10	0.08000000000000003	1	j	1	0.8481895381410141
5	51	n/a	n/a	n/a	j	10	0.07000000000000003	0	j	1	0.9502910572045948
5	52	n/a	n/a	n/a	j	10	0.08000000000000003	1	j	1	0.9302417807339225
5	53	n/a	n/a	n/a	f	10	0.07000000000000003	1	f	1	0.8382823605497833
5	54	n/a	n/a	n/a	j	10	0.06000000000000003	0	j	1	1.01825600603479
5	55	n/a	n/a	n/a	j	10	0.07000000000000003	1	j	1	0.9417432298942003
5	56	n/a	n/a	n/a	j	10	0.06000000000000003	1	j	1	0.898028200812405
5	57	n/a	n/a	n/a	f	10	0.05000000000000003	0	f	1	0.9410883583477698
5	58	n/a	n/a	n/a	j	10	0.06000000000000003	1	j	1	0.9219570995192043
5	59	n/a	n/a	n/a	j	10	0.05000000000000003	0	j	1	0.8789656507433392
5	60	n/a	n/a	n/a	j	10	0.06000000000000003	0	j	1	0.9398419071221724
5	61	n/a	n/a	n/a	f	10	0.07000000000000003	1	f	1	1.00794854995911
5	62	n/a	n/a	n/a	j	10	0.06000000000000003	1	j	1	1.059890955453739
5	63	n/a	n/a	n/a	j	10	0.05000000000000003	2	j	1	1.040687851782423
5	64	n/a	n/a	n/a	j	10	0.06000000000000003	1	j	1	0.8686812876549084
5	65	n/a	n/a	n/a	f	10	0.05000000000000003	0	f	1	0.9385715076059569
5	66	n/a	n/a	n/a	j	10	0.06000000000000003	1	j	1	0.9212899686826859
5	67	n/a	n/a	n/a	j	10	0.05000000000000003	0	j	1	0.9286586280213669
5	68	n/a	n/a	n/a	j	10	0.06000000000000003	1	j	1	0.9494277785124723
5	69	n/a	n/a	n/a	f	10	0.05000000000000003	1	f	1	0.9133861791924573
5	70	n/a	n/a	n/a	j	10	0.04000000000000003	0	j	1	0.9343141296412796
5	71	n/a	n/a	n/a	j	10	0.05000000000000003	0	j	1	0.9799920628720429
6	0	j	1	1.987331927230116	j	12	0.1	1	j	1	0.9615786823851522
6	1	n/a	n/a	n/a	j	12	0.09000000000000001	1	j	1	0.9244753757666331
6	2	n/a	n/a	n/a	f	12	0.08000000000000002	1	f	1	0.9534912893723231
6	3	n/a	n/a	n/a	j	12	0.07000000000000002	1	j	1	0.9483481100178324
6	4	n/a	n/a	n/a	j	12	0.06000000000000002	1	j	1	0.9049655059061479
6	5	n/a	n/a	n/a	j	12	0.05000000000000002	0	j	1	0.8533985753019806
6	6	n/a	n/a	n/a	j	12	0.06000000000000002	0	j	1	0.9242424501571804
6	7	n/a	n/a	n/a	j	12	0.07000000000000002	1	j	1	0.9712369688495528
6	8	n/a	n/a	n/a	f	12	0.06000000000000002	1	f	1	0.8538453248620499
6	9	n/a	n/a	n/a	j	12	0.05000000000000002	0	j	1	0.9460505000897683
6	10	n/a	n/a	n/a	j	12	0.06000000000000002	1	j	1	0.9657365608727559
6	11	n/a	n/a	n/a	j	12	0.05000000000000002	1	j	1	0.8939626942737959
6	12	n/a	n/a	n/a	j	12	0.04000000000000001	0	j	1	0.9067057479987852
6	13	n/a	n/a	n/a	j	12	0.05000000000000002	0	j	1	1.008744545368245
6	14	n/a	n/a	n/a	f	12	0.06000000000000002	1	f	1	0.8628162385430187
6	15	n/a	n/a	n/a	j	12	0.05000000000000002	0	j	1	0.8929223693266977
6	16	n/a	n/a	n/a	j	12	0.06000000000000002	0	j	1	0.9707645604212303
6	17	n/a	n/a	n/a	j	12	0.07000000000000002	1	j	1	1.602500657143537
6	18	n/a	n/a	n/a	j	12	0.06000000000000002	2	j	1	1.079554493451724
6	19	n/a	n/a	n/a	j	12	0.07000000000000002	2	j	1	0.8765237809275277
6	20	n/a	n/a	n/a	f	12	0.08000000000000002	0	f	1	0.922201429028064
6	21	n/a	n/a	n/a	j	12	0.09000000000000001	1	j	1	0.7863322573830374
6	22	n/a	n/a	n/a	j	12	0.08000000000000002	0	j	1	0.8143118374864571
6	23	n/a	n/a	n/a	j	12	0.09000000000000001	0	j	1	0.9622178735153284
6	24	n/a	n/a	n/a	j	12	0.1	1	j	1	0.9369541430205572
6	25	n/a	n/a	n/a	j	12	0.09000000000000001	1	j	1	0.9332227720879018
6	26	n/a	n/a	n/a	f	12	0.08000000000000002	1	f	1	0.8212032417068258
6	27	n/a	n/a	n/a	j	12	0.07000000000000002	0	j	1	0.8431412965874188
6	28	n/a	n/a	n/a	j	12	0.08000000000000002	0	j	1	0.8546672642114572
6	29	n/a	n/a	n/a	j	12	0.09000000000000001	0	j	1	0.8300666731665842
6	30	n/a	n/a	n/a	j	12	0.1	0	j	1	0.9256519777991343
6	31	n/a	n/a	n/a	j	12	0.11	1	j	1	0.841596632177243
6	32	n/a	n/a	n/a	f	12	0.1	0	f	1	0.8809778769209515
6	33	n/a	n/a	n/a	j	12	0.11	0	f	0	0.9487780387571547
6	34	n/a	n/a	n/a	j	12	0.1	1	j	1	0.9618007742101327
6	35	n/a	n/a	n/a	j	12	0.09000000000000001	1	j	1	0.8307138470700011
6	36	n/a	n/a	n/a	j	12	0.08000000000000002	0	j	1	0.8506319781590719
6	37	n/a	n/a	n/a	j	12	0.09000000000000001	0	j	1	0.8774258330231532
6	38	n/a	n/a	n/a	f	12	0.1	0	f	1	0.9855500607518479
6	39	n/a	n/a	n/a	j	12	0.11	1	j	1	0.8945260491746012
6	40	n/a	n/a	n/a	j	12	0.1	1	j	1	0.939452177262865
6	41	n/a	n/a	n/a	j	12	0.09000000000000001	1	j	1	0.8183437023835722
6	42	n/a	n/a	n/a	j	12	0.08000000000000002	0	j	1	1.385894117789576
6	43	n/a	n/a	n/a	j	12	0.09000000000000001	2	j	1	0.8531713516858872
6	44	n/a	n/a	n/a	f	12	0.1	0	f	1	1.025235505745513
6	45	n/a	n/a	n/a	j	12	0.11	1	j	1	0.8048488435451873
6	46	n/a	n/a	n/a	j	12	0.1	0	j	1	0.7860836513573304
6	47	n/a	n/a	n/a	j	12	0.11	0	j	1	0.761169451783644
6	48	n/a	n/a	n/a	j	12	0.12	0	j	1	0.9510422920866404
6	49	n/a	n/a	n/a	j	12	0.13	1	j	1	0.9158089474367443
6	50	n/a	n/a	n/a	f	12	0.12	1	f	1	0.926942904421594
6	51	n/a	n/a	n/a	j	12	0.11	1	j	1	0.8039915519475471
6	52	n/a	n/a	n/a	j	12	0.1	0	j	1	0.783821108576376
6	53	n/a	n/a	n/a	j	12	0.11	0	j	1	0.8438329458876979
6	54	n/a	n/a	n/a	j	12	0.12	0	j	1	0.8433776433521416
6	55	n/a	n/a	n/a	j	12	0.13	0	j	1	0.8473536289238837
6	56	n/a	n/a	n/a	f	12	0.14	1	f	1	0.8205888541124295
6	57	n/a	n/a	n/a	j	12	0.13	0	j	1	0.8484304464946035
6	58	n/a	n/a	n/a	j	12	0.14	1	j	1	0.9071479359699879
6	59	n/a	n/a	n/a	j	12	0.13	1	j	1	0.8205620548396837
6	60	n/a	n/a	n/a	j	12	0.12	0	j	1	0.9290788634098135
6	61	n/a	n/a	n/a	j	12	0.13	1	j	1	0.8383841407776345
6	62	n/a	n/a	n/a	f	12	0.12	0	f	1	0.9152364693582058
6	63	n/a	n/a	n/a	j	12	0.13	1	j	1	0.8574087727174629
6	64	n/a	n/a	n/a	j	12	0.12	0	j	1	0.8312167610565666
6	65	n/a	n/a	n/a	j	12	0.13	0	j	1	0.8197931438335218
6	66	n/a	n/a	n/a	j	12	0.14	0	j	1	1.057245810312452
6	67	n/a	n/a	n/a	j	12	0.15	1	j	1	0.8930250048579182
6	68	n/a	n/a	n/a	f	12	0.14	1	f	1	0.8915516151173506
6	69	n/a	n/a	n/a	j	12	0.13	1	j	1	0.8338276943541132
6	70	n/a	n/a	n/a	j	12	0.12	0	j	1	0.789937329624081
6	71	n/a	n/a	n/a	j	12	0.13	0	j	1	0.8708411949046422
7	0	f	1	1.433681780879851	f	11	0.1	0	f	1	0.9739568098448217
7	1	n/a	n/a	n/a	f	11	0.11	1	f	1	0.9936405898188241
7	2	n/a	n/a	n/a	j	11	0.1	1	j	1	1.002866096590878
7	3	n/a	n/a	n/a	f	11	0.09000000000000001	1	f	1	1.03974360509892
7	4	n/a	n/a	n/a	f	11	0.08000000000000002	1	f	1	1.002870087977499
7	5	n/a	n/a	n/a	f	11	0.07000000000000002	1	f	1	0.9026641897507943
7	6	n/a	n/a	n/a	f	11	0.06000000000000002	0	f	1	1.075713929749327
7	7	n/a	n/a	n/a	f	11	0.07000000000000002	2	f	1	0.9535619938396849
7	8	n/a	n/a	n/a	j	11	0.08000000000000002	1	j	1	0.9355315008433536
7	9	n/a	n/a	n/a	f	11	0.07000000000000002	1	f	1	0.9632151485711802
7	10	n/a	n/a	n/a	f	11	0.06000000000000002	1	f	1	1.005964833660983
7	11	n/a	n/a	n/a	f	11	0.05000000000000002	1	f	1	0.9396163940837141
7	12	n/a	n/a	n/a	f	11	0.04000000000000001	0	f	1	1.040504248259822
7	13	n/a	n/a	n/a	f	11	0.05000000000000002	2	f	1	0.9811458570184186
7	14	n/a	n/a	n/a	j	11	0.06000000000000002	1	j	1	0.9462130063038785
7	15	n/a	n/a	n/a	f	11	0.05000000000000002	1	f	1	1.096301757526817
7	16	n/a	n/a	n/a	f	11	0.04000000000000001	2	f	1	1.061788571998477
7	17	n/a	n/a	n/a	f	11	0.05000000000000002	2	f	1	0.8907898315810598
7	18	n/a	n/a	n/a	f	11	0.06000000000000002	0	f	1	1.045996388362255
7	19	n/a	n/a	n/a	f	11	0.07000000000000002	1	f	1	0.8998591042764019
7	20	n/a	n/a	n/a	j	11	0.06000000000000002	0	j	1	0.8558013865840621
7	21	n/a	n/a	n/a	f	11	0.07000000000000002	0	f	1	0.884871468966594
7	22	n/a	n/a	n/a	f	11	0.08000000000000002	0	f	1	0.9873322123312391
7	23	n/a	n/a	n/a	f	11	0.09000000000000001	1	f	1	0.8478739339334425
7	24	n/a	n/a	n/a	f	11	0.08000000000000002	0	f	1	0.9332663921813946
7	25	n/a	n/a	n/a	f	11	0.09000000000000001	1	f	1	0.8915578872838523
7	26	n/a	n/a	n/a	j	11	0.08000000000000002	0	j	1	0.8472073733573779
7	27	n/a	n/a	n/a	f	11	0.09000000000000001	0	f	1	0.8101670735049993
7	28	n/a	n/a	n/a	f	11	0.1	0	f	1	0.9366202925448306
7	29	n/a	n/a	n/a	f	11	0.11	1	f	1	0.822133233450586
7	30	n/a	n/a	n/a	f	11	0.1	0	f	1	0.8352976629394107
7	31	n/a	n/a	n/a	f	11	0.11	0	f	1	0.9693461947026663
7	32	n/a	n/a	n/a	j	11	0.12	0	f	0	1.02210996937356
7	33	n/a	n/a	n/a	f	11	0.11	1	f	1	0.8199220084352419
7	34	n/a	n/a	n/a	f	11	0.1	0	f	1	0.9106999798677862
7	35	n/a	n/a	n/a	f	11	0.11	1	f	1	0.8850650509411935
7	36	n/a	n/a	n/a	f	11	0.1	0	f	1	0.8910886149387807
7	37	n/a	n/a	n/a	f	11	0.11	1	f	1	0.9917107571673114
7	38	n/a	n/a	n/a	j	11	0.1	1	j	1	0.9250849166419357
7	39	n/a	n/a	n/a	f	11	0.09000000000000001	1	f	1	0.8559239790192805
7	40	n/a	n/a	n/a	f	11	0.08000000000000002	0	f	1	0.8837185300944839
7	41	n/a	n/a	n/a	f	11	0.09000000000000001	0	f	1	0.8726167892164085
7	42	n/a	n/a	n/a	f	11	0.1	0	f	1	0.8686852790415287
7	43	n/a	n/a	n/a	f	11	0.11	0	f	1	0.9304059975547716
7	44	n/a	n/a	n/a	j	11	0.12	1	j	1	0.959517704352038
7	45	n/a	n/a	n/a	f	11	0.11	1	f	1	0.893531625129981
7	46	n/a	n/a	n/a	f	11	0.1	1	f	1	0.9384973819251172
7	47	n/a	n/a	n/a	f	11	0.09000000000000001	1	f	1	0.8884802474931348
7	48	n/a	n/a	n/a	f	11	0.08000000000000002	0	f	1	0.9653918766125571
7	49	n/a	n/a	n/a	f	11	0.09000000000000001	1	f	1	0.9539317667949945
7	50	n/a	n/a	n/a	j	11	0.08000000000000002	1	j	1	0.9113357498426922
7	51	n/a	n/a	n/a	f	11	0.07000000000000002	0	f	1	0.8689164940442424
7	52	n/a	n/a	n/a	f	11	0.08000000000000002	0	f	1	1.012912687408971
7	53	n/a	n/a	n/a	f	11	0.09000000000000001	1	f	1	0.9077939694689121
7	54	n/a	n/a	n/a	f	11	0.08000000000000002	0	f	1	0.8870501927740406
7	55	n/a	n/a	n/a	f	11	0.09000000000000001	0	f	1	0.9897387298988178
7	56	n/a	n/a	n/a	j	11	0.1	1	j	1	0.8430398014897946
7	57	n/a	n/a	n/a	f	11	0.09000000000000001	0	f	1	0.8698795572272502
7	58	n/a	n/a	n/a	f	11	0.1	0	f	1	0.9538057531754021
7	59	n/a	n/a	n/a	f	11	0.11	1	f	1	0.8719319823139813
7	60	n/a	n/a	n/a	f	11	0.1	0	f	1	1.018771179282339
7	61	n/a	n/a	n/a	f	11	0.11	1	f	1	0.9504718097159639
7	62	n/a	n/a	n/a	j	11	0.1	1	j	1	0.9313533803506289
7	63	n/a	n/a	n/a	f	11	0.09000000000000001	1	f	1	0.9127831955847796
7	64	n/a	n/a	n/a	f	11	0.08000000000000002	1	f	1	0.8624233726295643
7	65	n/a	n/a	n/a	f	11	0.07000000000000002	0	f	1	0.8995024458563421
7	66	n/a	n/a	n/a	f	11	0.08000000000000002	0	f	1	1.134228999202605
7	67	n/a	n/a	n/a	f	11	0.09000000000000001	2	f	1	1.003479913953925
7	68	n/a	n/a	n/a	j	11	0.1	1	j	1	0.7818969779182225
7	69	n/a	n/a	n/a	f	11	0.09000000000000001	0	f	1	0.8113282802514732
7	70	n/a	n/a	n/a	f	11	0.1	0	f	1	0.9361438927007839
7	71	n/a	n/a	n/a	f	11	0.11	1	f	1	1.045692188112298
8	0	f	1	2.559097240882693	f	9	0.1	1	f	1	0.9274210148432758
8	1	n/a	n/a	n/a	j	9	0.09000000000000001	1	j	1	0.9393669327837415
8	2	n/a	n/a	n/a	f	9	0.08000000000000002	1	f	1	0.9992670114152133
8	3	n/a	n/a	n/a	f	9	0.07000000000000002	1	f	1	0.995758587581804
8	4	n/a	n/a	n/a	f	9	0.06000000000000002	1	f	1	0.9451504437020048
8	5	n/a	n/a	n/a	j	9	0.05000000000000002	1	j	1	0.9270883047429379
8	6	n/a	n/a	n/a	f	9	0.04000000000000001	0	f	1	0.9640407942060847
8	7	n/a	n/a	n/a	f	9	0.05000000000000002	1	f	1	0.9939815677935258
8	8	n/a	n/a	n/a	f	9	0.04000000000000001	1	f	1	0.9748785337142181
8	9	n/a	n/a	n/a	j	9	0.03000000000000001	1	j	1	1.002869517775252
8	10	n/a	n/a	n/a	f	9	0.02000000000000001	1	f	1	1.000918302685022
8	11	n/a	n/a	n/a	f	9	0.01000000000000001	2	f	1	0.9884894276910927
8	12	n/a	n/a	n/a	f	9	0.02000000000000001	1	f	1	0.9555864792491775
8	13	n/a	n/a	n/a	j	9	0.01000000000000001	0	j	1	0.9537005517922807
8	14	n/a	n/a	n/a	f	9	0.02000000000000001	0	f	1	1.013240550848423
8	15	n/a	n/a	n/a	f	9	0.03000000000000001	1	f	1	1.01159752739477
8	16	n/a	n/a	n/a	f	9	0.02000000000000001	2	f	1	0.991498643765226
8	17	n/a	n/a	n/a	j	9	0.03000000000000001	1	j	1	0.9724620376946405
8	18	n/a	n/a	n/a	f	9	0.02000000000000001	1	f	1	0.8903507796640042
8	19	n/a	n/a	n/a	f	9	0.01000000000000001	0	f	1	0.9610258761094883
8	20	n/a	n/a	n/a	f	9	0.02000000000000001	0	f	1	1.087090790795628
8	21	n/a	n/a	n/a	j	9	0.03000000000000001	2	j	1	0.9299390059895813
8	22	n/a	n/a	n/a	f	9	0.04000000000000001	0	f	1	0.9811507037084084
8	23	n/a	n/a	n/a	f	9	0.05000000000000002	1	f	1	1.110072876908816
8	24	n/a	n/a	n/a	f	9	0.04000000000000001	2	f	1	0.972015003033448
8	25	n/a	n/a	n/a	j	9	0.05000000000000002	1	j	1	0.9540663333318662
8	26	n/a	n/a	n/a	f	9	0.04000000000000001	1	f	1	1.013606332388008
8	27	n/a	n/a	n/a	f	9	0.03000000000000001	1	f	1	0.9799028269771952
8	28	n/a	n/a	n/a	f	9	0.02000000000000001	1	f	1	0.9948257448559161
8	29	n/a	n/a	n/a	j	9	0.01000000000000001	1	j	1	0.9508164939761627
8	30	n/a	n/a	n/a	f	9	1.040834085586084e-17	0	f	1	0.9784533854981419
8	31	n/a	n/a	n/a	f	9	0.01000000000000001	0	f	1	0.9906598835950717
8	32	n/a	n/a	n/a	f	9	0.02000000000000001	0	j	0	1.299250931828283
8	33	n/a	n/a	n/a	j	9	0.01000000000000001	2	j	1	1.366495436435798
8	34	n/a	n/a	n/a	f	9	0.02000000000000001	2	f	1	0.8634696845838334
8	35	n/a	n/a	n/a	f	9	0.03000000000000001	0	f	1	0.8022056940826587
8	36	n/a	n/a	n/a	f	9	0.04000000000000001	0	f	1	0.8692805649770889
8	37	n/a	n/a	n/a	j	9	0.05000000000000002	0	j	1	0.9613200979074463
8	38	n/a	n/a	n/a	f	9	0.06000000000000002	1	f	1	1.165774878114462
8	39	n/a	n/a	n/a	f	9	0.05000000000000002	2	f	1	0.9532863034692127
8	40	n/a	n/a	n/a	f	9	0.06000000000000002	1	f	1	1.285099205764709
8	41	n/a	n/a	n/a	j	9	0.05000000000000002	2	j	1	0.97597388268332
8	42	n/a	n/a	n/a	f	9	0.06000000000000002	1	f	1	0.9552007407764904
8	43	n/a	n/a	n/a	f	9	0.05000000000000002	1	f	1	1.062951774452813
8	44	n/a	n/a	n/a	f	9	0.04000000000000001	2	f	1	1.002876075042877
8	45	n/a	n/a	n/a	j	9	0.05000000000000002	1	j	1	0.9359215157746803
8	46	n/a	n/a	n/a	f	9	0.04000000000000001	0	f	1	0.954725196264917
8	47	n/a	n/a	n/a	f	9	0.05000000000000002	1	f	1	1.069190017675282
8	48	n/a	n/a	n/a	f	9	0.04000000000000001	2	f	1	0.9375633988238405
8	49	n/a	n/a	n/a	j	9	0.05000000000000002	0	j	1	1.045442726841429
8	50	n/a	n/a	n/a	f	9	0.06000000000000002	2	f	1	0.9922059735108633
8	51	n/a	n/a	n/a	f	9	0.07000000000000002	1	f	1	0.9884429566154722
8	52	n/a	n/a	n/a	f	9	0.06000000000000002	1	f	1	0.9925332667480689
8	53	n/a	n/a	n/a	j	9	0.05000000000000002	1	j	1	0.8283338436740451
8	54	n/a	n/a	n/a	f	9	0.04000000000000001	0	f	1	1.032075307099149
8	55	n/a	n/a	n/a	f	9	0.05000000000000002	1	f	1	1.080395534459967
8	56	n/a	n/a	n/a	f	9	0.04000000000000001	2	f	1	0.8752533814113121
8	57	n/a	n/a	n/a	j	9	0.05000000000000002	0	j	1	0.9043126300384756
8	58	n/a	n/a	n/a	f	9	0.06000000000000002	0	f	1	0.9070778017048724
8	59	n/a	n/a	n/a	f	9	0.07000000000000002	0	f	1	0.9996775534527842
8	60	n/a	n/a	n/a	f	9	0.08000000000000002	1	f	1	1.005892988789128
8	61	n/a	n/a	n/a	j	9	0.07000000000000002	1	j	1	0.9298933902173303
8	62	n/a	n/a	n/a	f	9	0.06000000000000002	1	f	1	1.017482818540884
8	63	n/a	n/a	n/a	f	9	0.05000000000000002	1	f	1	0.9818899644888006
8	64	n/a	n/a	n/a	f	9	0.04000000000000001	1	f	1	1.002827608259395
8	65	n/a	n/a	n/a	j	9	0.03000000000000001	1	j	1	1.087377029849449
8	66	n/a	n/a	n/a	f	9	0.02000000000000001	2	f	1	0.9716195712098852
8	67	n/a	n/a	n/a	f	9	0.03000000000000001	1	f	1	1.097215213550953
8	68	n/a	n/a	n/a	f	9	0.02000000000000001	2	f	1	0.9184974275412969
8	69	n/a	n/a	n/a	j	9	0.03000000000000001	0	j	1	0.9744317841541488
8	70	n/a	n/a	n/a	f	9	0.04000000000000001	1	f	1	0.9543511468800716
8	71	n/a	n/a	n/a	f	9	0.03000000000000001	1	f	1	0.9533972068165895
9	0	f	1	1.755658210051479	f	7	0.1	2	f	1	0.6903748990152963
9	1	n/a	n/a	n/a	f	7	0.11	1	f	1	0.6441709588107187
9	2	n/a	n/a	n/a	j	7	0.1	1	j	1	0.6881876222614665
9	3	n/a	n/a	n/a	f	7	0.09000000000000001	2	f	1	0.64027679656283
9	4	n/a	n/a	n/a	f	7	0.1	1	f	1	0.6865551474620588
9	5	n/a	n/a	n/a	f	7	0.09000000000000001	2	f	1	0.6019663822953589
9	6	n/a	n/a	n/a	f	7	0.1	1	f	1	0.6538970987603534
9	7	n/a	n/a	n/a	f	7	0.09000000000000001	1	f	1	0.6089846554386895
9	8	n/a	n/a	n/a	j	7	0.08000000000000002	1	j	1	0.6107103574613575
9	9	n/a	n/a	n/a	f	7	0.07000000000000002	1	f	1	0.6168126086413395
9	10	n/a	n/a	n/a	f	7	0.06000000000000002	1	f	1	0.5489041093678679
9	11	n/a	n/a	n/a	f	7	0.05000000000000002	1	f	1	0.6235648847359698
9	12	n/a	n/a	n/a	f	7	0.04000000000000001	1	j	0	0.730484570725821
9	13	n/a	n/a	n/a	f	7	0.03000000000000001	1	j	0	0.6146273275953718
9	14	n/a	n/a	n/a	j	7	0.04000000000000001	1	f	0	0.6355467250978108
9	15	n/a	n/a	n/a	f	7	0.03000000000000001	2	f	1	0.6647781733190641
9	16	n/a	n/a	n/a	f	7	0.04000000000000001	2	f	1	0.6236569715838414
9	17	n/a	n/a	n/a	f	7	0.05000000000000002	1	f	1	0.6055304003530182
9	18	n/a	n/a	n/a	f	7	0.04000000000000001	1	f	1	0.6344738989428151
9	19	n/a	n/a	n/a	f	7	0.03000000000000001	2	f	1	0.5823567279439885
9	20	n/a	n/a	n/a	j	7	0.04000000000000001	1	j	1	0.6504302993707824
9	21	n/a	n/a	n/a	f	7	0.03000000000000001	2	f	1	0.7113470397307537
9	22	n/a	n/a	n/a	f	7	0.04000000000000001	2	f	1	0.6213265753467567
9	23	n/a	n/a	n/a	f	7	0.05000000000000002	1	f	1	0.5609865895239636
9	24	n/a	n/a	n/a	f	7	0.04000000000000001	1	f	1	0.5924073101778049
9	25	n/a	n/a	n/a	f	7	0.03000000000000001	1	f	1	0.5812616641051136
9	26	n/a	n/a	n/a	j	7	0.02000000000000001	1	j	1	0.60004481751821
9	27	n/a	n/a	n/a	f	7	0.01000000000000001	2	f	1	0.636841928208014
9	28	n/a	n/a	n/a	f	7	0.02000000000000001	2	f	1	0.6173306328710169
9	29	n/a	n/a	n/a	f	7	0.03000000000000001	1	f	1	0.5511139088775963
9	30	n/a	n/a	n/a	f	7	0.02000000000000001	0	f	1	0.6270316841546446
9	31	n/a	n/a	n/a	f	7	0.03000000000000001	2	f	1	0.6057390925416257
9	32	n/a	n/a	n/a	j	7	0.04000000000000001	1	j	1	0.5658959880238399
9	33	n/a	n/a	n/a	f	7	0.03000000000000001	1	f	1	0.6011122267809696
9	34	n/a	n/a	n/a	f	7	0.02000000000000001	1	f	1	0.5877094548486639
9	35	n/a	n/a	n/a	f	7	0.01000000000000001	1	f	1	0.58266349407495
9	36	n/a	n/a	n/a	f	7	1.040834085586084e-17	0	f	1	0.6348699009395204
9	37	n/a	n/a	n/a	f	7	0.01000000000000001	2	f	1	0.5279302580456715
9	38	n/a	n/a	n/a	j	7	0.02000000000000001	0	j	1	0.6187623982259538
9	39	n/a	n/a	n/a	f	7	0.03000000000000001	1	f	1	0.5987601630331483
9	40	n/a	n/a	n/a	f	7	0.02000000000000001	1	f	1	0.5637737138022203
9	41	n/a	n/a	n/a	f	7	0.01000000000000001	0	f	1	0.6328271692327689
9	42	n/a	n/a	n/a	f	7	0.02000000000000001	2	f	1	0.5642127656901721
9	43	n/a	n/a	n/a	f	7	0.03000000000000001	1	f	1	0.5456591167021543
9	44	n/a	n/a	n/a	j	7	0.02000000000000001	0	j	1	0.6075987909571268
9	45	n/a	n/a	n/a	f	7	0.03000000000000001	1	f	1	0.5874380409368314
9	46	n/a	n/a	n/a	f	7	0.02000000000000001	1	f	1	0.5766621677903458
9	47	n/a	n/a	n/a	f	7	0.01000000000000001	1	f	1	0.6354463703755755
9	48	n/a	n/a	n/a	f	7	1.040834085586084e-17	2	f	1	0.5994820327905472
9	49	n/a	n/a	n/a	f	7	0.01000000000000001	2	f	1	0.580964876426151
9	50	n/a	n/a	n/a	j	7	0.02000000000000001	1	j	1	0.5533294103806838
9	51	n/a	n/a	n/a	f	7	0.01000000000000001	0	f	1	0.5444685447728261
9	52	n/a	n/a	n/a	f	7	0.02000000000000001	0	f	1	0.6143211316957604
9	53	n/a	n/a	n/a	f	7	0.03000000000000001	1	f	1	0.6280129936640151
9	54	n/a	n/a	n/a	f	7	0.02000000000000001	2	f	1	0.5912706218950916
9	55	n/a	n/a	n/a	f	7	0.03000000000000001	1	f	1	0.6051654740876984
9	56	n/a	n/a	n/a	j	7	0.02000000000000001	1	j	1	0.5949543813476339
9	57	n/a	n/a	n/a	f	7	0.01000000000000001	2	f	1	0.6159712825901806
9	58	n/a	n/a	n/a	f	7	0.02000000000000001	2	f	1	0.6600500975328032
9	59	n/a	n/a	n/a	f	7	0.03000000000000001	2	f	1	0.5061290504818317
9	60	n/a	n/a	n/a	f	7	0.04000000000000001	0	f	1	0.568009424227057
9	61	n/a	n/a	n/a	f	7	0.05000000000000002	1	f	1	0.5570077529700939
9	62	n/a	n/a	n/a	j	7	0.04000000000000001	1	j	1	0.5798926204442978
9	63	n/a	n/a	n/a	f	7	0.03000000000000001	1	f	1	0.6148374453186989
9	64	n/a	n/a	n/a	f	7	0.02000000000000001	2	f	1	0.539547742344439
9	65	n/a	n/a	n/a	f	7	0.03000000000000001	0	f	1	0.5796907706244383
9	66	n/a	n/a	n/a	f	7	0.04000000000000001	1	f	1	0.5907973581633996
9	67	n/a	n/a	n/a	f	7	0.03000000000000001	1	f	1	0.5328795703535434
9	68	n/a	n/a	n/a	j	7	0.02000000000000001	0	j	1	0.5735620052437298
9	69	n/a	n/a	n/a	f	7	0.03000000000000001	1	f	1	0.596770174568519
9	70	n/a	n/a	n/a	f	7	0.02000000000000001	1	f	1	0.5945623707666527
9	71	n/a	n/a	n/a	f	7	0.01000000000000001	2	f	1	0.5115507712180261
10	0	j	1	1.641022329509724	j	8	0.1	1	j	1	0.6233847023977432
10	1	n/a	n/a	n/a	j	8	0.09000000000000001	1	j	1	0.6037168879120145
10	2	n/a	n/a	n/a	f	8	0.08000000000000002	1	f	1	0.6173882228031289
10	3	n/a	n/a	n/a	j	8	0.07000000000000002	1	j	1	0.6393932758946903
10	4	n/a	n/a	n/a	j	8	0.06000000000000002	1	j	1	0.6021043700457085
10	5	n/a	n/a	n/a	j	8	0.05000000000000002	1	j	1	0.5570382585283369
10	6	n/a	n/a	n/a	j	8	0.04000000000000001	1	j	1	0.5604947943938896
10	7	n/a	n/a	n/a	j	8	0.03000000000000001	1	j	1	0.6042776769318152
10	8	n/a	n/a	n/a	f	8	0.02000000000000001	2	f	1	0.5933028049475979
10	9	n/a	n/a	n/a	j	8	0.03000000000000001	1	j	1	0.5962347593449522
10	10	n/a	n/a	n/a	j	8	0.02000000000000001	1	j	1	0.6172220103035215
10	11	n/a	n/a	n/a	j	8	0.01000000000000001	2	j	1	0.5561182452365756
10	12	n/a	n/a	n/a	j	8	0.02000000000000001	0	j	1	0.552271409338573
10	13	n/a	n/a	n/a	j	8	0.03000000000000001	0	j	1	0.6041254342708271
10	14	n/a	n/a	n/a	f	8	0.04000000000000001	1	f	1	0.6258462440164294
10	15	n/a	n/a	n/a	j	8	0.03000000000000001	2	j	1	0.5890075089118909
10	16	n/a	n/a	n/a	j	8	0.04000000000000001	1	j	1	0.6161272315366659
10	17	n/a	n/a	n/a	j	8	0.03000000000000001	1	j	1	0.6034785454685334
10	18	n/a	n/a	n/a	j	8	0.02000000000000001	2	j	1	0.5606932230293751
10	19	n/a	n/a	n/a	j	8	0.03000000000000001	1	j	1	0.5724977320351172
10	20	n/a	n/a	n/a	f	8	0.02000000000000001	1	f	1	0.6009611245244741
10	21	n/a	n/a	n/a	j	8	0.01000000000000001	2	j	1	0.5817600165319163
10	22	n/a	n/a	n/a	j	8	0.02000000000000001	1	j	1	0.6161557413870469
10	23	n/a	n/a	n/a	j	8	0.01000000000000001	2	j	1	0.5408472219132818
10	24	n/a	n/a	n/a	j	8	0.02000000000000001	0	j	1	0.6412635229644366
10	25	n/a	n/a	n/a	j	8	0.03000000000000001	2	j	1	0.5803048730886076
10	26	n/a	n/a	n/a	f	8	0.04000000000000001	1	f	1	0.5706471567973495
10	27	n/a	n/a	n/a	j	8	0.03000000000000001	1	j	1	0.597676218021661
10	28	n/a	n/a	n/a	j	8	0.02000000000000001	1	j	1	0.5607308560574893
10	29	n/a	n/a	n/a	j	8	0.01000000000000001	0	j	1	0.5964750974962953
10	30	n/a	n/a	n/a	j	8	0.02000000000000001	1	j	1	0.5995564435434062
10	31	n/a	n/a	n/a	j	8	0.01000000000000001	2	j	1	0.5644174664921593
10	32	n/a	n/a	n/a	f	8	0.02000000000000001	0	f	1	0.5640990113315638
10	33	n/a	n/a	n/a	j	8	0.03000000000000001	1	j	1	0.5453973961120937
10	34	n/a	n/a	n/a	j	8	0.02000000000000001	0	j	1	0.5973714475985616
10	35	n/a	n/a	n/a	j	8	0.03000000000000001	1	j	1	0.6593051347881556
10	36	n/a	n/a	n/a	j	8	0.02000000000000001	2	j	1	0.6313061680120882
10	37	n/a	n/a	n/a	j	8	0.03000000000000001	2	j	1	0.5651695567066781
10	38	n/a	n/a	n/a	f	8	0.04000000000000001	1	f	1	0.6332291582948528
10	39	n/a	n/a	n/a	j	8	0.03000000000000001	2	j	1	0.5581544197048061
10	40	n/a	n/a	n/a	j	8	0.04000000000000001	1	j	1	0.5950689910096116
10	41	n/a	n/a	n/a	j	8	0.03000000000000001	1	j	1	0.5842691696016118
10	42	n/a	n/a	n/a	j	8	0.02000000000000001	1	j	1	0.5970210613741074
10	43	n/a	n/a	n/a	j	8	0.01000000000000001	2	j	1	0.5618453066272195
10	44	n/a	n/a	n/a	f	8	0.02000000000000001	0	f	1	0.6309948402631562
10	45	n/a	n/a	n/a	j	8	0.03000000000000001	2	j	1	0.5159541196480859
10	46	n/a	n/a	n/a	j	8	0.04000000000000001	0	j	1	0.6339099738397636
10	47	n/a	n/a	n/a	j	8	0.05000000000000002	1	j	1	0.6258958512044046
10	48	n/a	n/a	n/a	j	8	0.04000000000000001	1	j	1	0.6066531187971123
10	49	n/a	n/a	n/a	j	8	0.03000000000000001	1	j	1	0.5908187405730132
10	50	n/a	n/a	n/a	f	8	0.02000000000000001	1	f	1	0.5708082375349477
10	51	n/a	n/a	n/a	j	8	0.01000000000000001	0	j	1	0.6245379263709765
10	52	n/a	n/a	n/a	j	8	0.02000000000000001	2	j	1	0.5676028735761065
10	53	n/a	n/a	n/a	j	8	0.03000000000000001	1	j	1	0.5966085236577783
10	54	n/a	n/a	n/a	j	8	0.02000000000000001	1	j	1	0.5527965610090178
10	55	n/a	n/a	n/a	j	8	0.01000000000000001	0	j	1	0.5546582551323809
10	56	n/a	n/a	n/a	f	8	0.02000000000000001	0	f	1	0.5666158620733768
10	57	n/a	n/a	n/a	j	8	0.03000000000000001	1	j	1	0.6116075628669932
10	58	n/a	n/a	n/a	j	8	0.02000000000000001	2	j	1	0.6075953697727527
10	59	n/a	n/a	n/a	j	8	0.03000000000000001	1	j	1	0.5575223559862934
10	60	n/a	n/a	n/a	j	8	0.02000000000000001	0	j	1	0.5779918678454123
10	61	n/a	n/a	n/a	j	8	0.03000000000000001	1	j	1	0.5914713313395623
10	62	n/a	n/a	n/a	f	8	0.02000000000000001	1	f	1	0.5984451290569268
10	63	n/a	n/a	n/a	j	8	0.01000000000000001	2	j	1	0.612271557591157
10	64	n/a	n/a	n/a	j	8	0.02000000000000001	2	j	1	0.561056438687956
10	65	n/a	n/a	n/a	j	8	0.03000000000000001	1	j	1	0.568421676842263
10	66	n/a	n/a	n/a	j	8	0.02000000000000001	1	j	1	0.6041185919020791
10	67	n/a	n/a	n/a	j	8	0.01000000000000001	2	j	1	0.6151225439680275
10	68	n/a	n/a	n/a	f	8	0.02000000000000001	2	f	1	0.5810526868153829
10	69	n/a	n/a	n/a	j	8	0.03000000000000001	1	j	1	0.6412954539991915
10	70	n/a	n/a	n/a	j	8	0.02000000000000001	2	j	1	0.5351190201472491
10	71	n/a	n/a	n/a	j	8	0.03000000000000001	0	j	1	0.5959989827533718
11	0	j	1	1.651657934096875	j	6	0.1	1	j	1	0.5509596705087461
11	1	n/a	n/a	n/a	f	6	0.09000000000000001	1	f	1	0.5938818402937613
11	2	n/a	n/a	n/a	j	6	0.08000000000000002	1	j	1	0.6164659287314862
11	3	n/a	n/a	n/a	j	6	0.07000000000000002	1	j	1	0.6036895184661262
11	4	n/a	n/a	n/a	j	6	0.06000000000000002	1	j	1	0.5527783147117589
11	5	n/a	n/a	n/a	f	6	0.05000000000000002	1	f	1	0.5873912847600877
11	6	n/a	n/a	n/a	j	6	0.04000000000000001	1	j	1	0.5613797405385412
11	7	n/a	n/a	n/a	j	6	0.03000000000000001	1	j	1	0.6050936292449478
11	8	n/a	n/a	n/a	j	6	0.02000000000000001	2	j	1	0.570472106221132
11	9	n/a	n/a	n/a	f	6	0.03000000000000001	1	f	1	0.589624747459311
11	10	n/a	n/a	n/a	j	6	0.02000000000000001	1	j	1	0.5842466468166094
11	11	n/a	n/a	n/a	j	6	0.01000000000000001	1	j	1	0.5884501410764642
11	12	n/a	n/a	n/a	j	6	1.040834085586084e-17	2	j	1	0.529458956909366
11	13	n/a	n/a	n/a	f	6	0.01000000000000001	0	f	1	0.6064603920967784
11	14	n/a	n/a	n/a	j	6	0.02000000000000001	2	j	1	0.5451097316108644
11	15	n/a	n/a	n/a	j	6	0.03000000000000001	0	j	1	0.5983809818571899
11	16	n/a	n/a	n/a	j	6	0.04000000000000001	1	j	1	0.5793150106037501
11	17	n/a	n/a	n/a	f	6	0.03000000000000001	1	f	1	0.6302393288933672
11	18	n/a	n/a	n/a	j	6	0.02000000000000001	2	j	1	0.5533359676483087
11	19	n/a	n/a	n/a	j	6	0.03000000000000001	0	j	1	0.6052076687046792
11	20	n/a	n/a	n/a	j	6	0.04000000000000001	1	j	1	0.5297950881940778
11	21	n/a	n/a	n/a	f	6	0.03000000000000001	0	f	1	0.6471955702581909
11	22	n/a	n/a	n/a	j	6	0.04000000000000001	2	j	1	0.5151467203104403
11	23	n/a	n/a	n/a	j	6	0.05000000000000002	0	j	1	0.561213813140057
11	24	n/a	n/a	n/a	j	6	0.06000000000000002	1	j	1	0.5890665243205149
11	25	n/a	n/a	n/a	f	6	0.05000000000000002	1	f	1	0.5709764457424171
11	26	n/a	n/a	n/a	j	6	0.04000000000000001	1	j	1	0.5678688705957029
11	27	n/a	n/a	n/a	j	6	0.03000000000000001	1	j	1	0.5704587066138629
11	28	n/a	n/a	n/a	j	6	0.02000000000000001	1	j	1	0.6000183033174835
11	29	n/a	n/a	n/a	f	6	0.01000000000000001	2	f	1	0.618916636594804
11	30	n/a	n/a	n/a	j	6	0.02000000000000001	2	j	1	0.5981443499913439
11	31	n/a	n/a	n/a	j	6	0.03000000000000001	1	j	1	0.6184935502242297
11	32	n/a	n/a	n/a	j	6	0.02000000000000001	2	j	1	0.5929891964769922
11	33	n/a	n/a	n/a	f	6	0.03000000000000001	1	f	1	0.5797637558716815
11	34	n/a	n/a	n/a	j	6	0.02000000000000001	1	j	1	0.6715435639198404
11	35	n/a	n/a	n/a	j	6	0.01000000000000001	2	j	1	1.108729492145358
11	36	n/a	n/a	n/a	j	6	0.02000000000000001	2	j	1	0.5767773476545699
11	37	n/a	n/a	n/a	f	6	0.03000000000000001	1	f	1	0.5687210304022301
11	38	n/a	n/a	n/a	j	6	0.02000000000000001	1	j	1	0.5495589809142984
11	39	n/a	n/a	n/a	j	6	0.01000000000000001	0	j	1	0.5852336582902353
11	40	n/a	n/a	n/a	j	6	0.02000000000000001	1	j	1	0.5732674983737525
11	41	n/a	n/a	n/a	f	6	0.01000000000000001	0	f	1	0.5374519822653383
11	42	n/a	n/a	n/a	j	6	0.02000000000000001	0	j	1	0.5914653442741837
11	43	n/a	n/a	n/a	j	6	0.03000000000000001	1	j	1	0.6029451259237248
11	44	n/a	n/a	n/a	j	6	0.02000000000000001	2	j	1	0.5844898359500803
11	45	n/a	n/a	n/a	f	6	0.03000000000000001	1	f	1	0.5568871562718414
11	46	n/a	n/a	n/a	j	6	0.02000000000000001	0	j	1	0.5703087447036523
11	47	n/a	n/a	n/a	j	6	0.03000000000000001	1	j	1	0.5840590519364923
11	48	n/a	n/a	n/a	j	6	0.02000000000000001	1	j	1	0.5881978288234677
11	49	n/a	n/a	n/a	f	6	0.01000000000000001	1	f	1	0.568230945878895
11	50	n/a	n/a	n/a	j	6	1.040834085586084e-17	0	j	1	0.6211190235626418
11	51	n/a	n/a	n/a	j	6	0.01000000000000001	2	j	1	0.5951644990418572
11	52	n/a	n/a	n/a	j	6	0.02000000000000001	1	j	1	0.5412839930213522
11	53	n/a	n/a	n/a	f	6	0.01000000000000001	0	f	1	0.6200125557370484
11	54	n/a	n/a	n/a	j	6	0.02000000000000001	2	j	1	0.5750559221196454
11	55	n/a	n/a	n/a	j	6	0.03000000000000001	1	j	1	0.5969332509848755
11	56	n/a	n/a	n/a	j	6	0.02000000000000001	1	j	1	0.5626450082927477
11	57	n/a	n/a	n/a	f	6	0.01000000000000001	0	f	1	0.5921076714876108
11	58	n/a	n/a	n/a	j	6	0.02000000000000001	1	j	1	0.5946678572508972
11	59	n/a	n/a	n/a	j	6	0.01000000000000001	1	j	1	0.6228202070924453
11	60	n/a	n/a	n/a	j	6	1.040834085586084e-17	2	j	1	0.6266929869598243
11	61	n/a	n/a	n/a	f	6	0.01000000000000001	2	f	1	0.5848330947046634
11	62	n/a	n/a	n/a	j	6	0.02000000000000001	1	j	1	0.5872932108468376
11	63	n/a	n/a	n/a	j	6	0.01000000000000001	1	j	1	0.5585951821703929
11	64	n/a	n/a	n/a	j	6	1.040834085586084e-17	0	j	1	0.5936101413099095
11	65	n/a	n/a	n/a	f	6	0.01000000000000001	1	f	1	0.6075933740648907
11	66	n/a	n/a	n/a	j	6	1.040834085586084e-17	2	j	1	0.5816673594526947
11	67	n/a	n/a	n/a	j	6	0.01000000000000001	1	j	1	0.6695159424562007
11	68	n/a	n/a	n/a	j	6	1.040834085586084e-17	2	j	1	0.5926661797275301
11	69	n/a	n/a	n/a	f	6	0.01000000000000001	1	f	1	0.692171305505326
11	70	n/a	n/a	n/a	j	6	1.040834085586084e-17	2	j	1	0.5925056691921782
11	71	n/a	n/a	n/a	j	6	0.01000000000000001	1	j	1	0.5700116719526704
12	0	j	1	1.650132371316431	j	2	0.12	2	j	1	0.3915869673364796
12	1	n/a	n/a	n/a	f	2	0.13	1	f	1	0.3941348938678857
12	2	n/a	n/a	n/a	j	2	0.12	1	j	1	0.4074002482520882
12	3	n/a	n/a	n/a	j	2	0.11	1	j	1	0.3950868381944019
12	4	n/a	n/a	n/a	j	2	0.1	1	j	1	0.4076137871306855
12	5	n/a	n/a	n/a	f	2	0.09000000000000002	1	f	1	0.3174410800857004
12	6	n/a	n/a	n/a	j	2	0.08000000000000003	1	j	1	0.4064722521870863
12	7	n/a	n/a	n/a	j	2	0.07000000000000003	1	j	1	0.4443265086447354
12	8	n/a	n/a	n/a	j	2	0.06000000000000003	1	j	1	0.3771740909432992
12	9	n/a	n/a	n/a	f	2	0.05000000000000003	1	f	1	0.3685093731910456
12	10	n/a	n/a	n/a	j	2	0.04000000000000003	1	j	1	0.373334382486064
12	11	n/a	n/a	n/a	j	2	0.03000000000000003	1	j	1	0.4272143183334265
12	12	n/a	n/a	n/a	j	2	0.02000000000000002	2	j	1	0.3932031914882828
12	13	n/a	n/a	n/a	f	2	0.03000000000000003	1	f	1	0.3683542795188259
12	14	n/a	n/a	n/a	j	2	0.02000000000000002	0	j	1	0.35811553223175
12	15	n/a	n/a	n/a	j	2	0.03000000000000003	1	j	1	0.3792031378834508
12	16	n/a	n/a	n/a	j	2	0.02000000000000002	1	j	1	0.4390821192355361
12	17	n/a	n/a	n/a	f	2	0.01000000000000002	2	f	1	0.4151218596962281
12	18	n/a	n/a	n/a	j	2	0.02000000000000002	2	j	1	0.3762825874728151
12	19	n/a	n/a	n/a	j	2	0.03000000000000003	1	j	1	0.3316692125808913
12	20	n/a	n/a	n/a	j	2	0.02000000000000002	0	j	1	0.4252112153044436
12	21	n/a	n/a	n/a	f	2	0.03000000000000003	2	f	1	0.395643065625336
12	22	n/a	n/a	n/a	j	2	0.04000000000000003	2	f	0	0.4379995997005608
12	23	n/a	n/a	n/a	j	2	0.03000000000000003	2	j	1	0.3726547073456459
12	24	n/a	n/a	n/a	j	2	0.04000000000000003	1	j	1	0.3857441559084691
12	25	n/a	n/a	n/a	f	2	0.03000000000000003	1	j	0	0.3966258006112184
12	26	n/a	n/a	n/a	j	2	0.02000000000000002	1	f	0	0.2187071461230516
12	27	n/a	n/a	n/a	j	2	0.01000000000000002	0	j	1	0.5536894899560139
12	28	n/a	n/a	n/a	j	2	0.02000000000000002	2	j	1	0.453579099761555
12	29	n/a	n/a	n/a	f	2	0.03000000000000003	2	f	1	0.3938466591353063
12	30	n/a	n/a	n/a	j	2	0.04000000000000003	1	j	1	0.3781565407989547
12	31	n/a	n/a	n/a	j	2	0.03000000000000003	1	j	1	0.4530647818173748
12	32	n/a	n/a	n/a	j	2	0.02000000000000002	2	j	1	0.4008942974032834
12	33	n/a	n/a	n/a	f	2	0.03000000000000003	1	f	1	0.4917233015294187
12	34	n/a	n/a	n/a	j	2	0.02000000000000002	2	j	1	0.3447803286544513
12	35	n/a	n/a	n/a	j	2	0.03000000000000003	0	j	1	0.4616513825021684
12	36	n/a	n/a	n/a	j	2	0.04000000000000003	2	j	1	0.3774055909889285
12	37	n/a	n/a	n/a	f	2	0.05000000000000003	1	f	1	0.3986919104354456
12	38	n/a	n/a	n/a	j	2	0.04000000000000003	1	j	1	0.3747037112480029
12	39	n/a	n/a	n/a	j	2	0.03000000000000003	1	j	1	0.4346291636466049
12	40	n/a	n/a	n/a	j	2	0.02000000000000002	2	j	1	0.391577559086727
12	41	n/a	n/a	n/a	f	2	0.03000000000000003	1	f	1	0.3975478096108418
12	42	n/a	n/a	n/a	j	2	0.02000000000000002	1	j	1	0.3465108773671091
12	43	n/a	n/a	n/a	j	2	0.01000000000000002	0	j	1	0.3973892947833519
12	44	n/a	n/a	n/a	j	2	0.02000000000000002	1	j	1	0.3334701806597877
12	45	n/a	n/a	n/a	f	2	0.01000000000000002	0	f	1	0.3686442248581443
12	46	n/a	n/a	n/a	j	2	0.02000000000000002	1	j	1	0.387456458323868
12	47	n/a	n/a	n/a	j	2	0.01000000000000002	1	j	1	0.3214085126819555
12	48	n/a	n/a	n/a	j	2	2.42861286636753e-17	0	j	1	0.3878584473859519
12	49	n/a	n/a	n/a	f	2	0.01000000000000002	1	f	1	0.3750911602692213
12	50	n/a	n/a	n/a	j	2	2.42861286636753e-17	1	f	0	0.3494211642246228
12	51	n/a	n/a	n/a	j	2	0.01000000000000002	0	j	1	0.4123698025941849
12	52	n/a	n/a	n/a	j	2	0.02000000000000002	2	j	1	0.3752690618566703
12	53	n/a	n/a	n/a	f	2	0.03000000000000003	1	f	1	0.427362284535775
12	54	n/a	n/a	n/a	j	2	0.02000000000000002	2	j	1	0.3248222837573849
12	55	n/a	n/a	n/a	j	2	0.03000000000000003	0	j	1	0.41096483648289
12	56	n/a	n/a	n/a	j	2	0.04000000000000003	1	j	1	0.3772596205235459
12	57	n/a	n/a	n/a	f	2	0.03000000000000003	1	f	1	0.4421631801815238
12	58	n/a	n/a	n/a	j	2	0.02000000000000002	2	j	1	0.3431735127524007
12	59	n/a	n/a	n/a	j	2	0.03000000000000003	0	j	1	0.4432171898370143
12	60	n/a	n/a	n/a	j	2	0.04000000000000003	2	j	1	0.3669444667757489
12	61	n/a	n/a	n/a	f	2	0.05000000000000003	1	f	1	0.4430854742822703
12	62	n/a	n/a	n/a	j	2	0.04000000000000003	2	j	1	0.4002431321132462
12	63	n/a	n/a	n/a	j	2	0.05000000000000003	1	j	1	0.3810534280491993
12	64	n/a	n/a	n/a	j	2	0.04000000000000003	1	j	1	0.4331637566792779
12	65	n/a	n/a	n/a	f	2	0.03000000000000003	2	f	1	0.428997040115064
12	66	n/a	n/a	n/a	j	2	0.04000000000000003	2	j	1	0.3611677982262336
12	67	n/a	n/a	n/a	j	2	0.05000000000000003	1	j	1	0.4850006756896619
12	68	n/a	n/a	n/a	j	2	0.04000000000000003	2	j	1	0.3790588779957034
12	69	n/a	n/a	n/a	f	2	0.05000000000000003	1	f	1	0.4588251997483894
12	70	n/a	n/a	n/a	j	2	0.04000000000000003	2	j	1	0.3690020236244891
12	71	n/a	n/a	n/a	j	2	0.05000000000000003	1	j	1	0.4128710059740115
13	0	f	1	1.404493667680072	f	3	0.06000000000000002	1	f	1	0.3870918171596713
13	1	n/a	n/a	n/a	f	3	0.05000000000000002	1	f	1	0.3511337517411448
13	2	n/a	n/a	n/a	j	3	0.04000000000000001	1	j	1	0.4519805517047644
13	3	n/a	n/a	n/a	f	3	0.03000000000000001	2	f	1	0.3360508935293183
13	4	n/a	n/a	n/a	f	3	0.04000000000000001	0	f	1	0.4515489123587031
13	5	n/a	n/a	n/a	f	3	0.05000000000000002	2	f	1	0.3930632080882788
13	6	n/a	n/a	n/a	f	3	0.06000000000000002	1	f	1	0.3968630026793107
13	7	n/a	n/a	n/a	f	3	0.05000000000000002	1	f	1	0.3468903436441906
13	8	n/a	n/a	n/a	j	3	0.04000000000000001	1	j	1	0.4090484034677502
13	9	n/a	n/a	n/a	f	3	0.03000000000000001	1	f	1	0.3488133339560591
13	10	n/a	n/a	n/a	f	3	0.02000000000000001	0	f	1	0.4260559625690803
13	11	n/a	n/a	n/a	f	3	0.03000000000000001	2	f	1	0.3588202960672788
13	12	n/a	n/a	n/a	f	3	0.04000000000000001	1	f	1	0.348342921177391
13	13	n/a	n/a	n/a	f	3	0.03000000000000001	0	f	1	0.40976514146314
13	14	n/a	n/a	n/a	j	3	0.04000000000000001	1	j	1	0.3833427701028995
13	15	n/a	n/a	n/a	f	3	0.03000000000000001	1	f	1	0.3747045665222686
13	16	n/a	n/a	n/a	f	3	0.02000000000000001	1	f	1	0.4366097438905854
13	17	n/a	n/a	n/a	f	3	0.01000000000000001	2	f	1	0.360739294992527
13	18	n/a	n/a	n/a	f	3	0.02000000000000001	0	f	1	0.396677688579075
13	19	n/a	n/a	n/a	f	3	0.03000000000000001	1	f	1	0.3615198950574268
13	20	n/a	n/a	n/a	j	3	0.02000000000000001	0	j	1	0.3665983570390381
13	21	n/a	n/a	n/a	f	3	0.03000000000000001	1	f	1	0.3625128935964312
13	22	n/a	n/a	n/a	f	3	0.02000000000000001	0	f	1	0.3746099137933925
13	23	n/a	n/a	n/a	f	3	0.03000000000000001	1	f	1	0.378555963980034
13	24	n/a	n/a	n/a	f	3	0.02000000000000001	1	f	1	0.3745642980211414
13	25	n/a	n/a	n/a	f	3	0.01000000000000001	0	f	1	0.389476382144494
13	26	n/a	n/a	n/a	j	3	0.02000000000000001	1	j	1	0.4114905583846848
13	27	n/a	n/a	n/a	f	3	0.01000000000000001	2	f	1	0.4024768799426965
13	28	n/a	n/a	n/a	f	3	0.02000000000000001	1	f	1	0.3379895642574411
13	29	n/a	n/a	n/a	f	3	0.01000000000000001	0	f	1	0.3811942667816766
13	30	n/a	n/a	n/a	f	3	0.02000000000000001	1	f	1	0.3694137060665525
13	31	n/a	n/a	n/a	f	3	0.01000000000000001	0	f	1	0.3652883287868463
13	32	n/a	n/a	n/a	j	3	0.02000000000000001	1	j	1	0.4173273827473167
13	33	n/a	n/a	n/a	f	3	0.01000000000000001	2	f	1	0.3183086352364626
13	34	n/a	n/a	n/a	f	3	0.02000000000000001	0	f	1	0.4112832917016931
13	35	n/a	n/a	n/a	f	3	0.03000000000000001	1	f	1	0.3778894034039695
13	36	n/a	n/a	n/a	f	3	0.02000000000000001	1	f	1	0.3932188719336409
13	37	n/a	n/a	n/a	f	3	0.01000000000000001	1	f	1	0.3802360502886586
13	38	n/a	n/a	n/a	j	3	1.040834085586084e-17	0	j	1	0.3470665345957968
13	39	n/a	n/a	n/a	f	3	0.01000000000000001	0	f	1	0.3977972709108144
13	40	n/a	n/a	n/a	f	3	0.02000000000000001	1	f	1	0.4051231654593721
13	41	n/a	n/a	n/a	f	3	0.01000000000000001	2	f	1	0.322765297110891
13	42	n/a	n/a	n/a	f	3	0.02000000000000001	0	f	1	0.4077808549627662
13	43	n/a	n/a	n/a	f	3	0.03000000000000001	1	f	1	0.3490950114210136
13	44	n/a	n/a	n/a	j	3	0.02000000000000001	0	j	1	0.3790486144425813
13	45	n/a	n/a	n/a	f	3	0.03000000000000001	1	f	1	0.4179865307814907
13	46	n/a	n/a	n/a	f	3	0.02000000000000001	2	f	1	0.3450885202619247
13	47	n/a	n/a	n/a	f	3	0.03000000000000001	0	f	1	0.3890082502039149
13	48	n/a	n/a	n/a	f	3	0.04000000000000001	1	f	1	0.3149940784787759
13	49	n/a	n/a	n/a	f	3	0.03000000000000001	0	f	1	0.3771276198385749
13	50	n/a	n/a	n/a	j	3	0.04000000000000001	1	j	1	0.4139193136652466
13	51	n/a	n/a	n/a	f	3	0.03000000000000001	1	f	1	0.3719251399161294
13	52	n/a	n/a	n/a	f	3	0.02000000000000001	1	f	1	0.4047970126266591
13	53	n/a	n/a	n/a	f	3	0.01000000000000001	2	f	1	0.3756833101506345
13	54	n/a	n/a	n/a	f	3	0.02000000000000001	1	f	1	0.3738586788822431
13	55	n/a	n/a	n/a	f	3	0.01000000000000001	0	f	1	0.379808972531464
13	56	n/a	n/a	n/a	j	3	0.02000000000000001	1	j	1	0.4518588145729154
13	57	n/a	n/a	n/a	f	3	0.01000000000000001	2	f	1	0.347524973214604
13	58	n/a	n/a	n/a	f	3	0.02000000000000001	0	f	1	0.4037672363629099
13	59	n/a	n/a	n/a	f	3	0.03000000000000001	1	f	1	0.3547456663800403
13	60	n/a	n/a	n/a	f	3	0.02000000000000001	0	f	1	0.3925292183121201
13	61	n/a	n/a	n/a	f	3	0.03000000000000001	1	f	1	0.3486585253849626
13	62	n/a	n/a	n/a	j	3	0.02000000000000001	0	j	1	0.3777052296791226
13	63	n/a	n/a	n/a	f	3	0.03000000000000001	1	f	1	0.4076194890949409
13	64	n/a	n/a	n/a	f	3	0.02000000000000001	2	f	1	0.370562083349796
13	65	n/a	n/a	n/a	f	3	0.03000000000000001	1	f	1	0.3522145606693812
13	66	n/a	n/a	n/a	f	3	0.02000000000000001	0	f	1	0.4365495880774688
13	67	n/a	n/a	n/a	f	3	0.03000000000000001	2	f	1	0.3455694816657342
13	68	n/a	n/a	n/a	j	3	0.04000000000000001	2	f	0	0.4234170895942952
13	69	n/a	n/a	n/a	f	3	0.05000000000000002	1	f	1	0.4374770139402244
13	70	n/a	n/a	n/a	f	3	0.04000000000000001	2	f	1	0.3766221399710048
13	71	n/a	n/a	n/a	f	3	0.05000000000000002	1	f	1	0.3723938421171624
14	0	f	1	1.943920243094908	f	5	0.04000000000000001	0	f	1	0.5648448293795809
14	1	n/a	n/a	n/a	j	5	0.05000000000000002	1	j	1	0.6003495879413094
14	2	n/a	n/a	n/a	f	5	0.04000000000000001	1	f	1	0.6687054070062004
14	3	n/a	n/a	n/a	f	5	0.03000000000000001	2	f	1	0.6573034572647884
14	4	n/a	n/a	n/a	f	5	0.04000000000000001	2	f	1	0.5490383908036165
14	5	n/a	n/a	n/a	j	5	0.05000000000000002	1	j	1	0.5839088049542625
14	6	n/a	n/a	n/a	f	5	0.04000000000000001	1	f	1	0.603880249458598
14	7	n/a	n/a	n/a	f	5	0.03000000000000001	1	f	1	0.5770729949581437
14	8	n/a	n/a	n/a	f	5	0.02000000000000001	1	f	1	0.5107439420826267
14	9	n/a	n/a	n/a	j	5	0.01000000000000001	0	j	1	0.57390897028381
14	10	n/a	n/a	n/a	f	5	0.02000000000000001	1	f	1	0.593458753923187
14	11	n/a	n/a	n/a	f	5	0.01000000000000001	1	f	1	0.5654478129872587
14	12	n/a	n/a	n/a	f	5	1.040834085586084e-17	0	f	1	0.5446718200983014
14	13	n/a	n/a	n/a	j	5	0.01000000000000001	0	j	1	0.644741441210499
14	14	n/a	n/a	n/a	f	5	0.02000000000000001	2	f	1	0.5437874441267923
14	15	n/a	n/a	n/a	f	5	0.03000000000000001	0	f	1	0.651588940207148
14	16	n/a	n/a	n/a	f	5	0.04000000000000001	2	f	1	0.5187076022557449
14	17	n/a	n/a	n/a	j	5	0.05000000000000002	0	j	1	0.6176887167675886
14	18	n/a	n/a	n/a	f	5	0.06000000000000002	1	f	1	0.6215406844276004
14	19	n/a	n/a	n/a	f	5	0.05000000000000002	1	f	1	0.6835291105671786
14	20	n/a	n/a	n/a	f	5	0.04000000000000001	2	f	1	0.5515119065821636
14	21	n/a	n/a	n/a	j	5	0.05000000000000002	1	j	1	0.6914559930446558
14	22	n/a	n/a	n/a	f	5	0.04000000000000001	2	f	1	0.5686106972279958
14	23	n/a	n/a	n/a	f	5	0.05000000000000002	1	f	1	0.7094479977095034
14	24	n/a	n/a	n/a	f	5	0.04000000000000001	2	f	1	0.6651804474822711
14	25	n/a	n/a	n/a	j	5	0.05000000000000002	2	j	1	0.7662590326217469
14	26	n/a	n/a	n/a	f	5	0.06000000000000002	2	f	1	0.6432623494765721
14	27	n/a	n/a	n/a	f	5	0.07000000000000002	1	f	1	0.5601010731479619
14	28	n/a	n/a	n/a	f	5	0.06000000000000002	1	f	1	0.5719144202303141
14	29	n/a	n/a	n/a	j	5	0.05000000000000002	1	j	1	0.5861519610043615
14	30	n/a	n/a	n/a	f	5	0.04000000000000001	1	f	1	0.5659866493951995
14	31	n/a	n/a	n/a	f	5	0.03000000000000001	1	f	1	0.5700909293664154
14	32	n/a	n/a	n/a	f	5	0.02000000000000001	1	f	1	0.5830617768806405
14	33	n/a	n/a	n/a	j	5	0.01000000000000001	1	j	1	0.5990141859510913
14	34	n/a	n/a	n/a	f	5	1.040834085586084e-17	2	f	1	0.5635194058122579
14	35	n/a	n/a	n/a	f	5	0.01000000000000001	0	f	1	0.6476927822513971
14	36	n/a	n/a	n/a	f	5	0.02000000000000001	2	f	1	0.548921215289738
14	37	n/a	n/a	n/a	j	5	0.03000000000000001	0	j	1	0.5779656387749128
14	38	n/a	n/a	n/a	f	5	0.04000000000000001	1	f	1	0.5996995630557649
14	39	n/a	n/a	n/a	f	5	0.03000000000000001	1	f	1	0.5624060956470203
14	40	n/a	n/a	n/a	f	5	0.02000000000000001	0	f	1	0.5477714125008788
14	41	n/a	n/a	n/a	j	5	0.03000000000000001	0	j	1	0.592997179221129
14	42	n/a	n/a	n/a	f	5	0.04000000000000001	1	f	1	0.6147510604059789
14	43	n/a	n/a	n/a	f	5	0.03000000000000001	1	f	1	0.6674022211227566
14	44	n/a	n/a	n/a	f	5	0.02000000000000001	2	f	1	0.5866369137656875
14	45	n/a	n/a	n/a	j	5	0.03000000000000001	1	j	1	0.6614222772768699
14	46	n/a	n/a	n/a	f	5	0.02000000000000001	2	f	1	0.5767830496479291
14	47	n/a	n/a	n/a	f	5	0.03000000000000001	1	f	1	0.5975915437447838
14	48	n/a	n/a	n/a	f	5	0.02000000000000001	1	f	1	0.6106784264266025
14	49	n/a	n/a	n/a	j	5	0.01000000000000001	2	j	1	0.557447375060292
14	50	n/a	n/a	n/a	f	5	0.02000000000000001	0	f	1	0.5983938112913165
14	51	n/a	n/a	n/a	f	5	0.03000000000000001	1	f	1	0.7078682662104256
14	52	n/a	n/a	n/a	f	5	0.02000000000000001	2	f	1	0.5533855748071801
14	53	n/a	n/a	n/a	j	5	0.03000000000000001	0	j	1	0.5903811141615734
14	54	n/a	n/a	n/a	f	5	0.04000000000000001	1	f	1	0.5722821974777617
14	55	n/a	n/a	n/a	f	5	0.03000000000000001	1	f	1	0.5692792535410263
14	56	n/a	n/a	n/a	f	5	0.02000000000000001	1	f	1	0.6059078709513415
14	57	n/a	n/a	n/a	j	5	0.01000000000000001	2	j	1	0.6290670033195056
14	58	n/a	n/a	n/a	f	5	0.02000000000000001	2	f	1	0.5762678764003795
14	59	n/a	n/a	n/a	f	5	0.03000000000000001	1	f	1	0.620145411696285
14	60	n/a	n/a	n/a	f	5	0.02000000000000001	2	f	1	0.5852672999317292
14	61	n/a	n/a	n/a	j	5	0.03000000000000001	1	j	1	0.567072875215672
14	62	n/a	n/a	n/a	f	5	0.02000000000000001	1	f	1	0.6340565145364963
14	63	n/a	n/a	n/a	f	5	0.01000000000000001	2	f	1	0.5859529621375259
14	64	n/a	n/a	n/a	f	5	0.02000000000000001	1	f	1	0.6610228540666867
14	65	n/a	n/a	n/a	j	5	0.01000000000000001	2	j	1	0.5421070727752522
14	66	n/a	n/a	n/a	f	5	0.02000000000000001	0	f	1	0.5329140672984067
14	67	n/a	n/a	n/a	f	5	0.03000000000000001	0	f	1	0.6995696150988806
14	68	n/a	n/a	n/a	f	5	0.04000000000000001	2	f	1	0.584415140125202
14	69	n/a	n/a	n/a	j	5	0.05000000000000002	1	j	1	0.606794527702732
14	70	n/a	n/a	n/a	f	5	0.04000000000000001	1	f	1	0.6177109544805717
14	71	n/a	n/a	n/a	f	5	0.03000000000000001	2	f	1	0.6008727439620998
15	0	j	1	1.601517066854285	j	4	0.04000000000000001	2	j	1	0.3878886678430717
15	1	n/a	n/a	n/a	j	4	0.05000000000000002	1	j	1	0.4248793605074752
15	2	n/a	n/a	n/a	f	4	0.04000000000000001	1	f	1	0.4287296175898518
15	3	n/a	n/a	n/a	j	4	0.03000000000000001	2	j	1	0.352959808515152
15	4	n/a	n/a	n/a	j	4	0.04000000000000001	1	j	1	0.4548600479320157
15	5	n/a	n/a	n/a	j	4	0.03000000000000001	2	j	1	0.4023254925559741
15	6	n/a	n/a	n/a	j	4	0.04000000000000001	1	j	1	0.3493119714548811
15	7	n/a	n/a	n/a	j	4	0.03000000000000001	0	j	1	0.4034861291002017
15	8	n/a	n/a	n/a	f	4	0.04000000000000001	1	f	1	0.3915687210101169
15	9	n/a	n/a	n/a	j	4	0.03000000000000001	1	j	1	0.2626716365048196
15	10	n/a	n/a	n/a	j	4	0.02000000000000001	0	j	1	0.465672698803246
15	11	n/a	n/a	n/a	j	4	0.03000000000000001	2	j	1	0.4128969499433879
15	12	n/a	n/a	n/a	j	4	0.04000000000000001	1	j	1	0.4024891391745768
15	13	n/a	n/a	n/a	j	4	0.03000000000000001	1	j	1	0.4092502533167135
15	14	n/a	n/a	n/a	f	4	0.02000000000000001	2	f	1	0.4065403907734435
15	15	n/a	n/a	n/a	j	4	0.03000000000000001	1	j	1	0.4275165228755213
15	16	n/a	n/a	n/a	j	4	0.02000000000000001	2	j	1	0.2945214305946138
15	17	n/a	n/a	n/a	j	4	0.03000000000000001	0	j	1	0.4894832815334667
15	18	n/a	n/a	n/a	j	4	0.04000000000000001	0	f	0	0.4294588998891413
15	19	n/a	n/a	n/a	j	4	0.05000000000000002	0	f	0	0.7544508173596114
15	20	n/a	n/a	n/a	f	4	0.04000000000000001	0	j	0	0.3631466678634752
15	21	n/a	n/a	n/a	j	4	0.05000000000000002	1	j	1	0.43822824882227
15	22	n/a	n/a	n/a	j	4	0.04000000000000001	1	f	0	0.08339192109997384
15	23	n/a	n/a	n/a	j	4	0.05000000000000002	1	f	0	0.4192763170285616
15	24	n/a	n/a	n/a	j	4	0.06000000000000002	1	j	1	0.4382730092911515
15	25	n/a	n/a	n/a	j	4	0.05000000000000002	2	j	1	0.5693060528137721
15	26	n/a	n/a	n/a	f	4	0.06000000000000002	2	f	1	0.4921375498233829
15	27	n/a	n/a	n/a	j	4	0.07000000000000002	2	j	1	0.4500843606947456
15	28	n/a	n/a	n/a	j	4	0.08000000000000002	1	j	1	0.478152891562786
15	29	n/a	n/a	n/a	j	4	0.07000000000000002	2	j	1	0.4192010509723332
15	30	n/a	n/a	n/a	j	4	0.08000000000000002	2	f	0	0.4392092732305173
15	31	n/a	n/a	n/a	j	4	0.07000000000000002	2	f	0	0.4949788428202737
15	32	n/a	n/a	n/a	f	4	0.06000000000000002	2	j	0	0.5322055971773807
15	33	n/a	n/a	n/a	j	4	0.07000000000000002	2	f	0	0.4961525939288549
15	34	n/a	n/a	n/a	j	4	0.08000000000000002	2	f	0	0.4595427930180449
15	35	n/a	n/a	n/a	j	4	0.09000000000000001	1	j	1	0.4561176180141047
15	36	n/a	n/a	n/a	j	4	0.08000000000000002	1	j	1	0.4289876318362076
15	37	n/a	n/a	n/a	j	4	0.07000000000000002	1	j	1	0.4415202827949543
15	38	n/a	n/a	n/a	f	4	0.06000000000000002	1	f	1	0.5098943481571041
15	39	n/a	n/a	n/a	j	4	0.05000000000000002	2	j	1	0.4334534168883692
15	40	n/a	n/a	n/a	j	4	0.06000000000000002	1	j	1	0.469888167193858
15	41	n/a	n/a	n/a	j	4	0.05000000000000002	2	j	1	0.4166947488556616
15	42	n/a	n/a	n/a	j	4	0.06000000000000002	1	j	1	0.3808319064264651
15	43	n/a	n/a	n/a	j	4	0.05000000000000002	1	j	1	0.4405794572667219
15	44	n/a	n/a	n/a	f	4	0.04000000000000001	2	f	1	0.3850077461393084
15	45	n/a	n/a	n/a	j	4	0.05000000000000002	1	j	1	0.4307099127036054
15	46	n/a	n/a	n/a	j	4	0.04000000000000001	2	j	1	0.4037629598751664
15	47	n/a	n/a	n/a	j	4	0.05000000000000002	1	j	1	0.4408038299006876
15	48	n/a	n/a	n/a	j	4	0.04000000000000001	2	j	1	0.364250284677837
15	49	n/a	n/a	n/a	j	4	0.05000000000000002	1	j	1	0.4232466006069444
15	50	n/a	n/a	n/a	f	4	0.04000000000000001	1	f	1	0.4196754551085178
15	51	n/a	n/a	n/a	j	4	0.03000000000000001	2	j	1	0.3845168062835
15	52	n/a	n/a	n/a	j	4	0.04000000000000001	1	j	1	0.3974580035428517
15	53	n/a	n/a	n/a	j	4	0.03000000000000001	1	j	1	0.4103609976009466
15	54	n/a	n/a	n/a	j	4	0.02000000000000001	2	j	1	0.4086854729393963
15	55	n/a	n/a	n/a	j	4	0.03000000000000001	1	j	1	0.3963426976697519
15	56	n/a	n/a	n/a	f	4	0.02000000000000001	1	f	1	0.3921158252924215
15	57	n/a	n/a	n/a	j	4	0.01000000000000001	1	j	1	0.3485253843246028
15	58	n/a	n/a	n/a	j	4	1.040834085586084e-17	0	j	1	0.3844634928391315
15	59	n/a	n/a	n/a	j	4	0.01000000000000001	1	j	1	0.3745252394874115
15	60	n/a	n/a	n/a	j	4	1.040834085586084e-17	0	j	1	0.4123201954062097
15	61	n/a	n/a	n/a	j	4	0.01000000000000001	2	j	1	0.3293815811630338
15	62	n/a	n/a	n/a	f	4	0.02000000000000001	0	f	1	0.4483176044304855
15	63	n/a	n/a	n/a	j	4	0.03000000000000001	2	j	1	0.3410754718934186
15	64	n/a	n/a	n/a	j	4	0.04000000000000001	0	j	1	0.3799720489187166
15	65	n/a	n/a	n/a	j	4	0.05000000000000002	1	j	1	0.4803963327140082
15	66	n/a	n/a	n/a	j	4	0.04000000000000001	2	j	1	0.4051761938026175
15	67	n/a	n/a	n/a	j	4	0.05000000000000002	1	j	1	0.3873401380842552
15	68	n/a	n/a	n/a	f	4	0.04000000000000001	1	f	1	0.4067650485085323
15	69	n/a	n/a	n/a	j	4	0.03000000000000001	1	j	1	0.3848546481749509
15	70	n/a	n/a	n/a	j	4	0.02000000000000001	1	j	1	0.4061911449534819
15	71	n/a	n/a	n/a	j	4	0.01000000000000001	2	j	1	0.4211134926299565
16	0	f	1	1.457697919744533	f	1	0.04000000000000001	1	f	1	0.4122010241844691
16	1	n/a	n/a	n/a	j	1	0.03000000000000001	2	j	1	0.3842411158839241
16	2	n/a	n/a	n/a	f	1	0.04000000000000001	1	f	1	0.4201812201063149
16	3	n/a	n/a	n/a	f	1	0.03000000000000001	2	f	1	0.4232343413750641
16	4	n/a	n/a	n/a	f	1	0.04000000000000001	1	f	1	0.4311743383877911
16	5	n/a	n/a	n/a	j	1	0.03000000000000001	2	j	1	0.3740171937388368
16	6	n/a	n/a	n/a	f	1	0.04000000000000001	1	f	1	0.3951062248961534
16	7	n/a	n/a	n/a	f	1	0.03000000000000001	1	f	1	0.4059941417945083
16	8	n/a	n/a	n/a	f	1	0.02000000000000001	2	f	1	0.3869965941994451
16	9	n/a	n/a	n/a	j	1	0.03000000000000001	1	j	1	0.3451532376639079
16	10	n/a	n/a	n/a	f	1	0.02000000000000001	0	f	1	0.3601502811943647
16	11	n/a	n/a	n/a	f	1	0.03000000000000001	1	f	1	0.4528783273126464
16	12	n/a	n/a	n/a	f	1	0.02000000000000001	2	f	1	0.4170824830362108
16	13	n/a	n/a	n/a	j	1	0.03000000000000001	1	j	1	0.3979677598981652
16	14	n/a	n/a	n/a	f	1	0.02000000000000001	1	f	1	0.3418264217034448
16	15	n/a	n/a	n/a	f	1	0.01000000000000001	0	f	1	0.4669815866218414
16	16	n/a	n/a	n/a	f	1	0.02000000000000001	2	f	1	0.4320076816948131
16	17	n/a	n/a	n/a	j	1	0.03000000000000001	2	j	1	0.4299666605656967
16	18	n/a	n/a	n/a	f	1	0.04000000000000001	2	f	1	0.4366279901878443
16	19	n/a	n/a	n/a	f	1	0.05000000000000002	2	f	1	0.5063100880943239
16	20	n/a	n/a	n/a	f	1	0.06000000000000002	2	f	1	0.3998026547196787
16	21	n/a	n/a	n/a	j	1	0.07000000000000002	1	j	1	0.4506981780577917
16	22	n/a	n/a	n/a	f	1	0.06000000000000002	2	f	1	0.4165376595337875
16	23	n/a	n/a	n/a	f	1	0.07000000000000002	1	f	1	0.964715622656513
16	24	n/a	n/a	n/a	f	1	0.06000000000000002	2	f	1	0.3607763577892911
16	25	n/a	n/a	n/a	j	1	0.07000000000000002	1	j	1	0.437526621069992
16	26	n/a	n/a	n/a	f	1	0.06000000000000002	1	f	1	0.4825020712451078
16	27	n/a	n/a	n/a	f	1	0.05000000000000002	2	f	1	0.4335352401831187
16	28	n/a	n/a	n/a	f	1	0.06000000000000002	1	f	1	0.4235833021230064
16	29	n/a	n/a	n/a	j	1	0.05000000000000002	1	f	0	0.4153522193955723
16	30	n/a	n/a	n/a	f	1	0.04000000000000001	1	f	1	0.456128451769473
16	31	n/a	n/a	n/a	f	1	0.03000000000000001	2	f	1	0.4924628473527264
16	32	n/a	n/a	n/a	f	1	0.04000000000000001	2	f	1	0.4194419593259227
16	33	n/a	n/a	n/a	j	1	0.05000000000000002	1	j	1	0.4724603271170054
16	34	n/a	n/a	n/a	f	1	0.04000000000000001	2	f	1	0.4270198810845613
16	35	n/a	n/a	n/a	f	1	0.05000000000000002	1	f	1	0.4739645075169392
16	36	n/a	n/a	n/a	f	1	0.04000000000000001	2	f	1	0.4004566709918436
16	37	n/a	n/a	n/a	j	1	0.05000000000000002	1	j	1	0.4852552687516436
16	38	n/a	n/a	n/a	f	1	0.04000000000000001	2	f	1	0.4372178592602722
16	39	n/a	n/a	n/a	f	1	0.05000000000000002	2	f	1	0.5052703333785757
16	40	n/a	n/a	n/a	f	1	0.06000000000000002	2	f	1	0.440010115300538
16	41	n/a	n/a	n/a	j	1	0.07000000000000002	1	j	1	0.4630249877518509
16	42	n/a	n/a	n/a	f	1	0.06000000000000002	2	f	1	0.4431313751556445
16	43	n/a	n/a	n/a	f	1	0.07000000000000002	1	f	1	0.4732084259158
16	44	n/a	n/a	n/a	f	1	0.06000000000000002	2	f	1	0.3817519197182264
16	45	n/a	n/a	n/a	j	1	0.07000000000000002	1	j	1	0.4996593071264215
16	46	n/a	n/a	n/a	f	1	0.06000000000000002	2	f	1	0.4069820085715037
16	47	n/a	n/a	n/a	f	1	0.07000000000000002	1	f	1	0.4055468220321927
16	48	n/a	n/a	n/a	f	1	0.06000000000000002	1	f	1	0.4106654829520267
16	49	n/a	n/a	n/a	j	1	0.05000000000000002	1	j	1	0.4229572254989762
16	50	n/a	n/a	n/a	f	1	0.04000000000000001	1	f	1	0.4275207993923686
16	51	n/a	n/a	n/a	f	1	0.03000000000000001	2	f	1	0.4495962718210649
16	52	n/a	n/a	n/a	f	1	0.04000000000000001	2	f	1	0.4296621752146166
16	53	n/a	n/a	n/a	j	1	0.05000000000000002	1	j	1	0.3614882490655873
16	54	n/a	n/a	n/a	f	1	0.04000000000000001	1	f	1	0.4464735864894465
16	55	n/a	n/a	n/a	f	1	0.03000000000000001	2	f	1	0.4187779646308627
16	56	n/a	n/a	n/a	f	1	0.04000000000000001	1	f	1	0.3447067732049618
16	57	n/a	n/a	n/a	j	1	0.03000000000000001	0	j	1	0.4117559852311388
16	58	n/a	n/a	n/a	f	1	0.04000000000000001	1	f	1	0.4267852448974736
16	59	n/a	n/a	n/a	f	1	0.03000000000000001	2	f	1	0.3896534283994697
16	60	n/a	n/a	n/a	f	1	0.04000000000000001	1	f	1	0.3937012588139623
16	61	n/a	n/a	n/a	j	1	0.03000000000000001	1	j	1	0.3986052404507063
16	62	n/a	n/a	n/a	f	1	0.02000000000000001	1	f	1	0.3944764420157298
16	63	n/a	n/a	n/a	f	1	0.01000000000000001	2	f	1	0.4168315962306224
16	64	n/a	n/a	n/a	f	1	0.02000000000000001	2	f	1	0.3816484289127402
16	65	n/a	n/a	n/a	j	1	0.03000000000000001	1	j	1	0.3947241927089635
16	66	n/a	n/a	n/a	f	1	0.02000000000000001	1	f	1	0.3831183974689338
16	67	n/a	n/a	n/a	f	1	0.01000000000000001	1	f	1	0.4364814494911116
16	68	n/a	n/a	n/a	f	1	1.040834085586084e-17	2	f	1	0.3934817328990903
16	69	n/a	n/a	n/a	j	1	0.01000000000000001	1	j	1	0.4125060797377955
16	70	n/a	n/a	n/a	f	1	1.040834085586084e-17	2	f	1	0.3926027737616096
16	71	n/a	n/a	n/a	f	1	0.01000000000000001	1	f	1	0.391433869372122
17	0	j	1	1.505962267750874	j	10	0.06000000000000003	0	j	1	0.8522578956908546
17	1	n/a	n/a	n/a	f	10	0.07000000000000003	0	f	1	0.8405574476637412
17	2	n/a	n/a	n/a	j	10	0.08000000000000003	0	j	1	0.8549326910579111
17	3	n/a	n/a	n/a	j	10	0.09000000000000002	0	j	1	0.8643169977294747
17	4	n/a	n/a	n/a	j	10	0.1	0	j	1	0.9257993737992365
17	5	n/a	n/a	n/a	f	10	0.11	1	f	1	0.9470352307835128
17	6	n/a	n/a	n/a	j	10	0.1	1	j	1	0.9037680916371755
17	7	n/a	n/a	n/a	j	10	0.09000000000000002	1	j	1	0.9325676154112443
17	8	n/a	n/a	n/a	j	10	0.08000000000000003	1	j	1	0.9449215094791725
17	9	n/a	n/a	n/a	f	10	0.07000000000000003	1	f	1	0.9237218600756023
17	10	n/a	n/a	n/a	j	10	0.06000000000000003	1	j	1	0.8719596368609928
17	11	n/a	n/a	n/a	j	10	0.05000000000000003	0	j	1	0.8535491073562298
17	12	n/a	n/a	n/a	j	10	0.06000000000000003	0	j	1	0.8728109413932543
17	13	n/a	n/a	n/a	f	10	0.07000000000000003	0	f	1	0.9252534099214245
17	14	n/a	n/a	n/a	j	10	0.08000000000000003	1	j	1	0.9345946667017415
17	15	n/a	n/a	n/a	j	10	0.07000000000000003	1	j	1	0.9155346825427841
17	16	n/a	n/a	n/a	j	10	0.06000000000000003	0	j	1	0.9286124420468695
17	17	n/a	n/a	n/a	f	10	0.07000000000000003	0	j	0	0.9584591331076808
17	18	n/a	n/a	n/a	j	10	0.06000000000000003	1	j	1	0.95493132257252
17	19	n/a	n/a	n/a	j	10	0.05000000000000003	1	j	1	0.9433335100766271
17	20	n/a	n/a	n/a	j	10	0.04000000000000003	0	j	1	0.9502574155631009
17	21	n/a	n/a	n/a	f	10	0.05000000000000003	1	f	1	0.9507472150144167
17	22	n/a	n/a	n/a	j	10	0.04000000000000003	1	j	1	0.9550792887748685
17	23	n/a	n/a	n/a	j	10	0.03000000000000003	1	j	1	0.8962591637682635
17	24	n/a	n/a	n/a	j	10	0.02000000000000002	0	j	1	0.9489351280790288
17	25	n/a	n/a	n/a	f	10	0.03000000000000003	0	f	1	0.9600676595873665
17	26	n/a	n/a	n/a	j	10	0.04000000000000003	1	j	1	0.8671485973754898
17	27	n/a	n/a	n/a	j	10	0.03000000000000003	0	j	1	0.9280108839448076
17	28	n/a	n/a	n/a	j	10	0.04000000000000003	0	j	1	0.956691236468032
17	29	n/a	n/a	n/a	f	10	0.05000000000000003	1	f	1	0.9614840296271723
17	30	n/a	n/a	n/a	j	10	0.04000000000000003	1	j	1	0.8786674375587609
17	31	n/a	n/a	n/a	j	10	0.03000000000000003	0	j	1	0.9936645381094422
17	32	n/a	n/a	n/a	j	10	0.04000000000000003	1	j	1	0.8553378162323497
17	33	n/a	n/a	n/a	f	10	0.03000000000000003	0	f	1	1.020610920764739
17	34	n/a	n/a	n/a	j	10	0.04000000000000003	1	j	1	0.9735687905922532
17	35	n/a	n/a	n/a	j	10	0.03000000000000003	1	j	1	0.9559773494838737
17	36	n/a	n/a	n/a	j	10	0.02000000000000002	0	j	1	0.9783142573724035
17	37	n/a	n/a	n/a	f	10	0.03000000000000003	1	f	1	1.110435522394255
17	38	n/a	n/a	n/a	j	10	0.02000000000000002	2	j	1	0.978049970959546
17	39	n/a	n/a	n/a	j	10	0.03000000000000003	1	j	1	1.055239001027076
17	40	n/a	n/a	n/a	j	10	0.02000000000000002	2	j	1	0.9642181255621836
17	41	n/a	n/a	n/a	f	10	0.03000000000000003	1	f	1	0.8790064198547043
17	42	n/a	n/a	n/a	j	10	0.02000000000000002	0	j	1	0.9026832913514227
17	43	n/a	n/a	n/a	j	10	0.03000000000000003	0	j	1	0.8978702561580576
17	44	n/a	n/a	n/a	j	10	0.04000000000000003	0	j	1	0.8739316641294863
17	45	n/a	n/a	n/a	f	10	0.05000000000000003	0	f	1	1.0539178539766
17	46	n/a	n/a	n/a	j	10	0.06000000000000003	2	j	1	1.04283892098465
17	47	n/a	n/a	n/a	j	10	0.07000000000000003	1	j	1	0.9817722187144682
17	48	n/a	n/a	n/a	j	10	0.06000000000000003	1	j	1	0.9717287640087306
17	49	n/a	n/a	n/a	f	10	0.05000000000000003	1	f	1	1.038681612670189
17	50	n/a	n/a	n/a	j	10	0.04000000000000003	2	j	1	0.9556189805152826
17	51	n/a	n/a	n/a	j	10	0.05000000000000003	1	j	1	0.9745492447982542
17	52	n/a	n/a	n/a	j	10	0.04000000000000003	1	j	1	0.9413104501727503
17	53	n/a	n/a	n/a	f	10	0.03000000000000003	0	f	1	1.060154101520311
17	54	n/a	n/a	n/a	j	10	0.04000000000000003	2	j	1	0.8951917544764001
17	55	n/a	n/a	n/a	j	10	0.05000000000000003	0	j	1	0.9703041261236649
17	56	n/a	n/a	n/a	j	10	0.06000000000000003	1	j	1	0.9433198253682349
17	57	n/a	n/a	n/a	f	10	0.05000000000000003	1	f	1	1.00717365188757
17	58	n/a	n/a	n/a	j	10	0.04000000000000003	1	j	1	0.9471974518964998
17	59	n/a	n/a	n/a	j	10	0.03000000000000003	0	j	1	0.897329994244501
17	60	n/a	n/a	n/a	j	10	0.04000000000000003	0	j	1	0.9090997212333605
17	61	n/a	n/a	n/a	f	10	0.05000000000000003	0	f	1	1.009184452559566
17	62	n/a	n/a	n/a	j	10	0.06000000000000003	1	j	1	1.013938187184976
17	63	n/a	n/a	n/a	j	10	0.05000000000000003	1	j	1	0.9715916315326467
17	64	n/a	n/a	n/a	j	10	0.04000000000000003	1	j	1	1.006778790266253
17	65	n/a	n/a	n/a	f	10	0.03000000000000003	1	f	1	1.133692728675669
17	66	n/a	n/a	n/a	j	10	0.02000000000000002	2	j	1	0.9467344517179299
17	67	n/a	n/a	n/a	j	10	0.03000000000000003	0	j	1	0.9129297362815123
17	68	n/a	n/a	n/a	j	10	0.04000000000000003	0	j	1	0.8896106636093464
17	69	n/a	n/a	n/a	f	10	0.05000000000000003	0	f	1	0.9804145790403709
17	70	n/a	n/a	n/a	j	10	0.06000000000000003	1	j	1	0.9591174258384854
17	71	n/a	n/a	n/a	j	10	0.05000000000000003	1	j	1	1.00545735808555
18	0	j	1	2.619381917582359	j	12	0.14	1	j	1	0.919845088821603
18	1	n/a	n/a	n/a	j	12	0.13	1	j	1	0.8746441256371327
18	2	n/a	n/a	n/a	f	12	0.12	1	f	1	0.9115318976982962
18	3	n/a	n/a	n/a	j	12	0.11	1	j	1	0.9464943986677099
18	4	n/a	n/a	n/a	j	12	0.1	1	j	1	0.9354739108821377
18	5	n/a	n/a	n/a	j	12	0.09000000000000002	1	j	1	0.9380281095800456
18	6	n/a	n/a	n/a	j	12	0.08000000000000003	1	j	1	0.9103330579237081
18	7	n/a	n/a	n/a	j	12	0.07000000000000003	0	j	1	0.987299996195361
18	8	n/a	n/a	n/a	f	12	0.08000000000000003	1	f	1	0.9622421069070697
18	9	n/a	n/a	n/a	j	12	0.07000000000000003	1	j	1	0.9181173910619691
18	10	n/a	n/a	n/a	j	12	0.06000000000000003	0	j	1	0.9787746916699689
18	11	n/a	n/a	n/a	j	12	0.07000000000000003	1	j	1	0.9020500872575212
18	12	n/a	n/a	n/a	j	12	0.06000000000000003	0	j	1	0.9800815838389099
18	13	n/a	n/a	n/a	j	12	0.07000000000000003	1	j	1	0.9635623986832798
18	14	n/a	n/a	n/a	f	12	0.06000000000000003	1	f	1	0.9518445596622769
18	15	n/a	n/a	n/a	j	12	0.05000000000000003	1	j	1	0.9018764621869195
18	16	n/a	n/a	n/a	j	12	0.04000000000000003	0	j	1	0.9778076371294446
18	17	n/a	n/a	n/a	j	12	0.05000000000000003	1	j	1	0.8857127950759605
18	18	n/a	n/a	n/a	j	12	0.04000000000000003	0	j	1	0.9628459458181169
18	19	n/a	n/a	n/a	j	12	0.05000000000000003	1	j	1	0.967704596783733
18	20	n/a	n/a	n/a	f	12	0.04000000000000003	1	f	1	0.9566823984205257
18	21	n/a	n/a	n/a	j	12	0.03000000000000003	1	j	1	0.8815708820766304
18	22	n/a	n/a	n/a	j	12	0.02000000000000002	0	j	1	0.8815768691420089
18	23	n/a	n/a	n/a	j	12	0.03000000000000003	0	j	1	0.9815293147112243
18	24	n/a	n/a	n/a	j	12	0.04000000000000003	1	j	1	0.9531440392311197
18	25	n/a	n/a	n/a	j	12	0.03000000000000003	0	j	1	1.005398057575803
18	26	n/a	n/a	n/a	f	12	0.04000000000000003	1	f	1	1.006344299938064
18	27	n/a	n/a	n/a	j	12	0.03000000000000003	1	j	1	0.8992623928352259
18	28	n/a	n/a	n/a	j	12	0.02000000000000002	0	j	1	0.8402994333882816
18	29	n/a	n/a	n/a	j	12	0.03000000000000003	0	j	1	0.9322203652991448
18	30	n/a	n/a	n/a	j	12	0.04000000000000003	0	j	1	0.9531825275626034
18	31	n/a	n/a	n/a	j	12	0.05000000000000003	1	j	1	0.9400468930252828
18	32	n/a	n/a	n/a	f	12	0.04000000000000003	0	f	1	0.9452188673603814
18	33	n/a	n/a	n/a	j	12	0.05000000000000003	1	j	1	0.8616390662791673
18	34	n/a	n/a	n/a	j	12	0.04000000000000003	0	j	1	0.8969086184806656
18	35	n/a	n/a	n/a	j	12	0.05000000000000003	0	j	1	0.8777864827716257
18	36	n/a	n/a	n/a	j	12	0.06000000000000003	0	j	1	0.9953916656668298
18	37	n/a	n/a	n/a	j	12	0.07000000000000003	1	j	1	1.625771263061324
18	38	n/a	n/a	n/a	f	12	0.06000000000000003	2	f	1	0.8151982091367245
18	39	n/a	n/a	n/a	j	12	0.07000000000000003	0	j	1	0.8535431203199551
18	40	n/a	n/a	n/a	j	12	0.08000000000000003	0	j	1	0.8105944363342132
18	41	n/a	n/a	n/a	j	12	0.09000000000000002	0	j	1	0.9145693385507911
18	42	n/a	n/a	n/a	j	12	0.1	1	j	1	0.8712300694605801
18	43	n/a	n/a	n/a	j	12	0.09000000000000002	0	j	1	0.9493077519873623
18	44	n/a	n/a	n/a	f	12	0.1	1	f	1	0.9222256624198053
18	45	n/a	n/a	n/a	j	12	0.09000000000000002	1	j	1	0.8812823622429278
18	46	n/a	n/a	n/a	j	12	0.08000000000000003	0	j	1	0.90224937122548
18	47	n/a	n/a	n/a	j	12	0.09000000000000002	1	j	1	0.9051188889716286
18	48	n/a	n/a	n/a	j	12	0.08000000000000003	1	j	1	0.922450035053771
18	49	n/a	n/a	n/a	j	12	0.07000000000000003	1	j	1	0.9600237544218544
18	50	n/a	n/a	n/a	f	12	0.06000000000000003	1	f	1	0.9005558853095863
18	51	n/a	n/a	n/a	j	12	0.05000000000000003	0	j	1	0.8899510713818017
18	52	n/a	n/a	n/a	j	12	0.06000000000000003	0	j	1	0.9099193798028864
18	53	n/a	n/a	n/a	j	12	0.07000000000000003	0	j	1	0.9417842841066886
18	54	n/a	n/a	n/a	j	12	0.08000000000000003	1	j	1	0.8334274158696644
18	55	n/a	n/a	n/a	j	12	0.07000000000000003	0	j	1	0.918817023106385
18	56	n/a	n/a	n/a	f	12	0.08000000000000003	1	f	1	0.9546396666846704
18	57	n/a	n/a	n/a	j	12	0.07000000000000003	1	j	1	0.8942879918322433
18	58	n/a	n/a	n/a	j	12	0.06000000000000003	0	j	1	0.8704908087092917
18	59	n/a	n/a	n/a	j	12	0.07000000000000003	0	j	1	0.9535323435848113
18	60	n/a	n/a	n/a	j	12	0.08000000000000003	1	j	1	0.9435216752171982
18	61	n/a	n/a	n/a	j	12	0.07000000000000003	1	j	1	0.9884215742058586
18	62	n/a	n/a	n/a	f	12	0.06000000000000003	1	f	1	0.8885255781933665
18	63	n/a	n/a	n/a	j	12	0.05000000000000003	0	j	1	0.9013444681477267
18	64	n/a	n/a	n/a	j	12	0.06000000000000003	0	j	1	0.9022659069451038
18	65	n/a	n/a	n/a	j	12	0.07000000000000003	0	j	1	0.9337938246608246
18	66	n/a	n/a	n/a	j	12	0.08000000000000003	1	j	1	0.9807013882673346
18	67	n/a	n/a	n/a	j	12	0.07000000000000003	1	j	1	0.9701182418211829
18	68	n/a	n/a	n/a	f	12	0.06000000000000003	1	f	1	1.039137485407991
18	69	n/a	n/a	n/a	j	12	0.05000000000000003	2	j	1	0.90593598166015
18	70	n/a	n/a	n/a	j	12	0.06000000000000003	0	j	1	0.9349775541631971
18	71	n/a	n/a	n/a	j	12	0.07000000000000003	1	j	1	0.9249024535238277
19	0	f	1	1.818743980868021	f	11	0.1	1	f	1	0.9377136458060704
19	1	n/a	n/a	n/a	f	11	0.09000000000000001	1	f	1	0.9239490836625919
19	2	n/a	n/a	n/a	j	11	0.08000000000000002	1	j	1	0.9046322256326675
19	3	n/a	n/a	n/a	f	11	0.07000000000000002	0	f	1	0.8929066889395472
19	4	n/a	n/a	n/a	f	11	0.08000000000000002	0	f	1	0.8998471301165409
19	5	n/a	n/a	n/a	f	11	0.09000000000000001	1	f	1	0.8969508130976465
19	6	n/a	n/a	n/a	f	11	0.08000000000000002	0	f	1	0.9479153302672785
19	7	n/a	n/a	n/a	f	11	0.09000000000000001	1	f	1	1.328696489101276
19	8	n/a	n/a	n/a	j	11	0.08000000000000002	1	f	0	0.1037197388941422
19	9	n/a	n/a	n/a	f	11	0.09000000000000001	0	f	1	0.6758069289498962
19	10	n/a	n/a	n/a	f	11	0.1	0	f	1	0.7454151862766594
19	11	n/a	n/a	n/a	f	11	0.11	0	f	1	0.7687060342286713
19	12	n/a	n/a	n/a	f	11	0.12	0	f	1	0.7975326423766091
19	13	n/a	n/a	n/a	f	11	0.13	0	f	1	0.7534464148629922
19	14	n/a	n/a	n/a	j	11	0.14	0	j	1	0.7644432394299656
19	15	n/a	n/a	n/a	f	11	0.15	0	f	1	0.705235095199896
19	16	n/a	n/a	n/a	f	11	0.16	0	f	1	0.8999574632907752
19	17	n/a	n/a	n/a	f	11	0.17	1	f	1	0.7932057003781665
19	18	n/a	n/a	n/a	f	11	0.16	0	f	1	0.8362148252490442
19	19	n/a	n/a	n/a	f	11	0.17	1	f	1	0.8827568924170919
19	20	n/a	n/a	n/a	j	11	0.16	1	j	1	0.9048412028932944
19	21	n/a	n/a	n/a	f	11	0.15	1	f	1	0.8790392061928287
19	22	n/a	n/a	n/a	f	11	0.14	1	f	1	0.8516489249886945
19	23	n/a	n/a	n/a	f	11	0.13	0	f	1	0.8246811599237844
19	24	n/a	n/a	n/a	f	11	0.14	0	f	1	0.8365965723060071
19	25	n/a	n/a	n/a	f	11	0.15	1	f	1	0.937506664195098
19	26	n/a	n/a	n/a	j	11	0.14	1	j	1	0.9597865523537621
19	27	n/a	n/a	n/a	f	11	0.13	1	f	1	0.8308221845654771
19	28	n/a	n/a	n/a	f	11	0.12	0	f	1	0.8514869889768306
19	29	n/a	n/a	n/a	f	11	0.13	0	f	1	0.7946856473863591
19	30	n/a	n/a	n/a	f	11	0.14	0	f	1	0.9291792181320488
19	31	n/a	n/a	n/a	f	11	0.15	1	f	1	0.9094518180645537
19	32	n/a	n/a	n/a	j	11	0.14	1	j	1	0.8963555271038786
19	33	n/a	n/a	n/a	f	11	0.13	1	f	1	0.8314933067595121
19	34	n/a	n/a	n/a	f	11	0.12	0	f	1	0.9083835534693208
19	35	n/a	n/a	n/a	f	11	0.13	1	f	1	0.9942484201455954
19	36	n/a	n/a	n/a	f	11	0.12	1	f	1	0.9859295270289294
19	37	n/a	n/a	n/a	f	11	0.11	1	f	1	0.9412371798243839
19	38	n/a	n/a	n/a	j	11	0.1	1	j	1	0.9721775092475582
19	39	n/a	n/a	n/a	f	11	0.09000000000000002	1	f	1	0.8507770933501888
19	40	n/a	n/a	n/a	f	11	0.08000000000000003	0	f	1	0.8980712507327553
19	41	n/a	n/a	n/a	f	11	0.09000000000000002	0	f	1	0.9745771844754927
19	42	n/a	n/a	n/a	f	11	0.1	1	f	1	0.9469975977553986
19	43	n/a	n/a	n/a	f	11	0.09000000000000002	1	f	1	0.9530659222218674
19	44	n/a	n/a	n/a	j	11	0.08000000000000003	1	j	1	0.9638914024981204
19	45	n/a	n/a	n/a	f	11	0.07000000000000003	1	f	1	0.9748648490058258
19	46	n/a	n/a	n/a	f	11	0.06000000000000003	1	f	1	1.005716227635276
19	47	n/a	n/a	n/a	f	11	0.05000000000000003	1	f	1	0.9617135340231471
19	48	n/a	n/a	n/a	f	11	0.04000000000000003	1	f	1	1.029318118176889
19	49	n/a	n/a	n/a	f	11	0.03000000000000003	2	f	1	0.9946521197853144
19	50	n/a	n/a	n/a	j	11	0.04000000000000003	1	j	1	1.005557142605539
19	51	n/a	n/a	n/a	f	11	0.03000000000000003	1	f	1	0.9231448204081971
19	52	n/a	n/a	n/a	f	11	0.02000000000000002	0	f	1	0.9205142153077759
19	53	n/a	n/a	n/a	f	11	0.03000000000000003	0	f	1	1.004303563910071
19	54	n/a	n/a	n/a	f	11	0.04000000000000003	1	f	1	1.009305049286922
19	55	n/a	n/a	n/a	f	11	0.03000000000000003	1	f	1	0.9612513891479466
19	56	n/a	n/a	n/a	j	11	0.02000000000000002	0	j	1	0.9981907640758436
19	57	n/a	n/a	n/a	f	11	0.03000000000000003	1	f	1	0.9170109232654795
19	58	n/a	n/a	n/a	f	11	0.02000000000000002	0	f	1	0.938816692418186
19	59	n/a	n/a	n/a	f	11	0.03000000000000003	0	f	1	0.9270178853766993
19	60	n/a	n/a	n/a	f	11	0.04000000000000003	0	f	1	0.9520797660225071
19	61	n/a	n/a	n/a	f	11	0.05000000000000003	1	f	1	0.9388851160765626
19	62	n/a	n/a	n/a	j	11	0.04000000000000003	0	j	1	0.9348635147325695
19	63	n/a	n/a	n/a	f	11	0.05000000000000003	0	f	1	1.010809514758876
19	64	n/a	n/a	n/a	f	11	0.06000000000000003	1	f	1	0.9118911219702568
19	65	n/a	n/a	n/a	f	11	0.05000000000000003	0	f	1	0.9038376557291485
19	66	n/a	n/a	n/a	f	11	0.06000000000000003	0	f	1	0.9176880325539969
19	67	n/a	n/a	n/a	f	11	0.07000000000000003	1	f	1	0.9884800194413401
19	68	n/a	n/a	n/a	j	11	0.06000000000000003	1	j	1	0.9674482930859085
19	69	n/a	n/a	n/a	f	11	0.05000000000000003	1	f	1	0.8763096718466841
19	70	n/a	n/a	n/a	f	11	0.04000000000000003	0	f	1	0.92055127810454
19	71	n/a	n/a	n/a	f	11	0.05000000000000003	0	f	1	0.8604037338809576
20	0	f	1	1.801040210877545	f	9	0.02000000000000001	0	f	1	0.9143073329178151
20	1	n/a	n/a	n/a	j	9	0.03000000000000001	0	j	1	0.8701854680548422
20	2	n/a	n/a	n/a	f	9	0.04000000000000001	0	f	1	1.010321140813176
20	3	n/a	n/a	n/a	f	9	0.05000000000000002	1	f	1	1.000216674961848
20	4	n/a	n/a	n/a	f	9	0.04000000000000001	1	f	1	1.020755750854732
20	5	n/a	n/a	n/a	j	9	0.03000000000000001	2	j	1	0.9301228946133051
20	6	n/a	n/a	n/a	f	9	0.04000000000000001	0	f	1	0.9911340026301332
20	7	n/a	n/a	n/a	f	9	0.05000000000000002	1	f	1	0.9940297494758852
20	8	n/a	n/a	n/a	f	9	0.04000000000000001	1	f	1	0.958915861119749
20	9	n/a	n/a	n/a	j	9	0.03000000000000001	1	j	1	0.9709746781154536
20	10	n/a	n/a	n/a	f	9	0.02000000000000001	1	f	1	0.9607288033585064
20	11	n/a	n/a	n/a	f	9	0.01000000000000001	0	f	1	0.9094928722479381
20	12	n/a	n/a	n/a	f	9	0.02000000000000001	0	f	1	0.8993747216591146
20	13	n/a	n/a	n/a	j	9	0.03000000000000001	0	j	1	0.9267436204827391
20	14	n/a	n/a	n/a	f	9	0.04000000000000001	0	f	1	0.9386818407510873
20	15	n/a	n/a	n/a	f	9	0.05000000000000002	1	f	1	1.005637540423777
20	16	n/a	n/a	n/a	f	9	0.04000000000000001	1	f	1	1.050386337155942
20	17	n/a	n/a	n/a	j	9	0.03000000000000001	2	j	1	1.066136896377429
20	18	n/a	n/a	n/a	f	9	0.04000000000000001	2	f	1	0.982461872335989
20	19	n/a	n/a	n/a	f	9	0.05000000000000002	1	f	1	1.004357447527582
20	20	n/a	n/a	n/a	f	9	0.04000000000000001	1	f	1	0.9232560088858008
20	21	n/a	n/a	n/a	j	9	0.03000000000000001	0	j	1	0.8892103851248976
20	22	n/a	n/a	n/a	f	9	0.04000000000000001	0	f	1	0.9662645635544322
20	23	n/a	n/a	n/a	f	9	0.05000000000000002	1	f	1	0.8969091886829119
20	24	n/a	n/a	n/a	f	9	0.04000000000000001	0	f	1	0.9738233836542349
20	25	n/a	n/a	n/a	j	9	0.05000000000000002	1	j	1	0.9069552092987578
20	26	n/a	n/a	n/a	f	9	0.04000000000000001	0	f	1	0.9030008912086487
20	27	n/a	n/a	n/a	f	9	0.05000000000000002	0	f	1	0.963897674693726
20	28	n/a	n/a	n/a	f	9	0.06000000000000002	1	f	1	0.9839706143247895
20	29	n/a	n/a	n/a	j	9	0.05000000000000002	1	j	1	0.9247670316544827
20	30	n/a	n/a	n/a	f	9	0.04000000000000001	0	f	1	0.9307646516535897
20	31	n/a	n/a	n/a	f	9	0.05000000000000002	0	f	1	1.009250025235815
20	32	n/a	n/a	n/a	f	9	0.06000000000000002	1	f	1	0.9414812242612243
20	33	n/a	n/a	n/a	j	9	0.05000000000000002	1	j	1	0.9375442972232122
20	34	n/a	n/a	n/a	f	9	0.04000000000000001	0	f	1	0.8841880875697825
20	35	n/a	n/a	n/a	f	9	0.05000000000000002	0	f	1	0.9774238943355158
20	36	n/a	n/a	n/a	f	9	0.06000000000000002	1	f	1	0.9164481385378167
20	37	n/a	n/a	n/a	j	9	0.05000000000000002	0	j	1	1.035972890560515
20	38	n/a	n/a	n/a	f	9	0.06000000000000002	1	f	1	1.018321863812162
20	39	n/a	n/a	n/a	f	9	0.05000000000000002	1	f	1	0.97533469152404
20	40	n/a	n/a	n/a	f	9	0.04000000000000001	1	f	1	0.8917913830664475
20	41	n/a	n/a	n/a	j	9	0.03000000000000001	0	j	1	0.9541435950668529
20	42	n/a	n/a	n/a	f	9	0.04000000000000001	1	f	1	0.9180860302294604
20	43	n/a	n/a	n/a	f	9	0.03000000000000001	0	f	1	0.922057739313459
20	44	n/a	n/a	n/a	f	9	0.04000000000000001	0	f	1	0.9038379408011679
20	45	n/a	n/a	n/a	j	9	0.05000000000000002	0	j	1	0.8849686876055785
20	46	n/a	n/a	n/a	f	9	0.06000000000000002	0	f	1	0.9210208355798386
20	47	n/a	n/a	n/a	f	9	0.07000000000000002	1	f	1	0.9279053974314593
20	48	n/a	n/a	n/a	f	9	0.06000000000000002	1	f	1	0.9116276908316649
20	49	n/a	n/a	n/a	j	9	0.05000000000000002	0	j	1	0.9556466350622941
20	50	n/a	n/a	n/a	f	9	0.06000000000000002	1	f	1	0.8972131038317457
20	51	n/a	n/a	n/a	f	9	0.05000000000000002	0	f	1	0.9885994757642038
20	52	n/a	n/a	n/a	f	9	0.06000000000000002	1	f	1	0.8825889693107456
20	53	n/a	n/a	n/a	j	9	0.05000000000000002	0	j	1	0.9894829964323435
20	54	n/a	n/a	n/a	f	9	0.06000000000000002	1	f	1	0.8086526295519434
20	55	n/a	n/a	n/a	f	9	0.05000000000000002	0	f	1	0.9244488615659066
20	56	n/a	n/a	n/a	f	9	0.06000000000000002	1	f	1	0.93651765701361
20	57	n/a	n/a	n/a	j	9	0.05000000000000002	1	j	1	1.003458246472292
20	58	n/a	n/a	n/a	f	9	0.04000000000000001	1	f	1	0.9268223077233415
20	59	n/a	n/a	n/a	f	9	0.03000000000000001	0	f	1	0.9221498261613306
20	60	n/a	n/a	n/a	f	9	0.04000000000000001	0	f	1	0.9570481799601112
20	61	n/a	n/a	n/a	j	9	0.05000000000000002	1	j	1	0.9857958157954272
20	62	n/a	n/a	n/a	f	9	0.04000000000000001	1	f	1	0.9167366584006231
20	63	n/a	n/a	n/a	f	9	0.03000000000000001	0	f	1	0.9201179281808436
20	64	n/a	n/a	n/a	f	9	0.04000000000000001	0	f	1	0.9488935036642943
20	65	n/a	n/a	n/a	j	9	0.05000000000000002	1	j	1	0.9676116546033882
20	66	n/a	n/a	n/a	f	9	0.04000000000000001	1	f	1	0.9393720645457506
20	67	n/a	n/a	n/a	f	9	0.03000000000000001	0	f	1	0.9275022679357789
20	68	n/a	n/a	n/a	f	9	0.04000000000000001	0	f	1	0.9304122697503772
20	69	n/a	n/a	n/a	j	9	0.05000000000000002	0	j	1	0.9333624704158865
20	70	n/a	n/a	n/a	f	9	0.06000000000000002	1	f	1	0.9215716461476404
20	71	n/a	n/a	n/a	f	9	0.05000000000000002	0	f	1	1.021493015927263
21	0	f	1	1.426890731381718	f	7	0.02000000000000001	2	f	1	0.6671285264310427
21	1	n/a	n/a	n/a	f	7	0.03000000000000001	2	f	1	0.6012992515170481
21	2	n/a	n/a	n/a	j	7	0.04000000000000001	1	j	1	0.6068067869346123
21	3	n/a	n/a	n/a	f	7	0.03000000000000001	1	f	1	0.5892729357583448
21	4	n/a	n/a	n/a	f	7	0.02000000000000001	1	f	1	0.5462304543470964
21	5	n/a	n/a	n/a	f	7	0.01000000000000001	0	f	1	0.5762527661863714
21	6	n/a	n/a	n/a	f	7	0.02000000000000001	1	f	1	0.6215632072126027
21	7	n/a	n/a	n/a	f	7	0.01000000000000001	2	f	1	0.5852598873607349
21	8	n/a	n/a	n/a	j	7	0.02000000000000001	1	j	1	0.5884281884937081
21	9	n/a	n/a	n/a	f	7	0.01000000000000001	1	f	1	0.5930889809678774
21	10	n/a	n/a	n/a	f	7	1.040834085586084e-17	2	f	1	0.5568649185588583
21	11	n/a	n/a	n/a	f	7	0.01000000000000001	0	f	1	0.5611009140848182
21	12	n/a	n/a	n/a	f	7	0.02000000000000001	0	f	1	0.6289558148419019
21	13	n/a	n/a	n/a	f	7	0.03000000000000001	2	f	1	0.5449831478181295
21	14	n/a	n/a	n/a	j	7	0.04000000000000001	0	j	1	0.635357704712078
21	15	n/a	n/a	n/a	f	7	0.05000000000000002	2	f	1	0.6817962810746394
21	16	n/a	n/a	n/a	f	7	0.06000000000000002	2	f	1	0.5974763639096636
21	17	n/a	n/a	n/a	f	7	0.07000000000000002	1	f	1	0.6687367678678129
21	18	n/a	n/a	n/a	f	7	0.06000000000000002	2	f	1	1.194688156247139
21	19	n/a	n/a	n/a	f	7	0.07000000000000002	2	f	1	0.6416803371394053
21	20	n/a	n/a	n/a	j	7	0.08000000000000002	1	j	1	0.6286325129913166
21	21	n/a	n/a	n/a	f	7	0.07000000000000002	1	f	1	0.5935545470856596
21	22	n/a	n/a	n/a	f	7	0.06000000000000002	1	f	1	0.6135391061252449
21	23	n/a	n/a	n/a	f	7	0.05000000000000002	1	f	1	0.64932753785979
21	24	n/a	n/a	n/a	f	7	0.04000000000000001	2	f	1	0.6390785269904882
21	25	n/a	n/a	n/a	f	7	0.05000000000000002	2	f	1	0.6343604296562262
21	26	n/a	n/a	n/a	j	7	0.06000000000000002	1	j	1	0.661199045018293
21	27	n/a	n/a	n/a	f	7	0.05000000000000002	2	f	1	0.6164867409097496
21	28	n/a	n/a	n/a	f	7	0.06000000000000002	1	f	1	0.6922796429716982
21	29	n/a	n/a	n/a	f	7	0.05000000000000002	2	f	1	0.6079967886616942
21	30	n/a	n/a	n/a	f	7	0.06000000000000002	1	f	1	0.6198537558084354
