blockLoop_thisRepN	trialLoop_thisRepN	trigger	firstKey	readyKey_corr	readyKey_rt	targetKey	blockType	margin	outcome	trialResp_keys	trialResp_corr	trialResp_rt
0	0	48	j	1	10.55666278360877	j	8	0.1	0	f	0	0.8320814652252011
0	1	128	n/a	n/a	n/a	j	8	0.11	2	j	1	3.579446441086475
0	2	108	n/a	n/a	n/a	f	8	0.12	2	f	1	1.895267875835998
0	3	108	n/a	n/a	n/a	j	8	0.13	2	j	1	0.5403260616294574
0	4	108	n/a	n/a	n/a	j	8	0.14	1	j	1	0.5118492695037276
0	5	88	n/a	n/a	n/a	j	8	0.13	1	j	1	0.5091328496928327
0	6	88	n/a	n/a	n/a	j	8	0.12	1	f	0	0.483110756817041
0	7	128	n/a	n/a	n/a	j	8	0.11	1	j	1	0.5671515624271706
0	8	88	n/a	n/a	n/a	f	8	0.1	1	j	0	0.6112788441241719
0	9	128	n/a	n/a	n/a	j	8	0.09000000000000002	1	f	0	0.5736255822412204
0	10	128	n/a	n/a	n/a	j	8	0.08000000000000003	1	f	0	0.537894170236541
0	11	128	n/a	n/a	n/a	j	8	0.07000000000000003	1	j	1	0.47082500133547
0	12	88	n/a	n/a	n/a	j	8	0.06000000000000003	1	f	0	0.6845768480270635
0	13	128	n/a	n/a	n/a	j	8	0.07000000000000003	2	j	1	0.3997618856083136
0	14	108	n/a	n/a	n/a	f	8	0.08000000000000003	2	j	0	0.4434886037488468
0	15	128	n/a	n/a	n/a	j	8	0.09000000000000002	0	j	1	0.6588227479078341
0	16	68	n/a	n/a	n/a	j	8	0.1	0	f	0	0.3039402342110407
0	17	128	n/a	n/a	n/a	j	8	0.09000000000000002	0	j	1	0.5948138277453836
0	18	68	n/a	n/a	n/a	j	8	0.1	1	j	1	0.4788870205520652
0	19	88	n/a	n/a	n/a	j	8	0.09000000000000002	0	j	1	0.7557006897695828
0	20	68	n/a	n/a	n/a	f	8	0.1	2	f	1	0.2487588230869733
0	21	108	n/a	n/a	n/a	j	8	0.11	0	j	1	0.6367127785342745
0	22	68	n/a	n/a	n/a	j	8	0.12	1	j	1	0.3122035330743529
0	23	88	n/a	n/a	n/a	j	8	0.11	0	j	1	0.4835820248699747
0	24	68	n/a	n/a	n/a	j	8	0.12	1	j	1	0.6635667891823687
0	25	88	n/a	n/a	n/a	j	8	0.11	1	j	1	0.5625589084811509
0	26	88	n/a	n/a	n/a	f	8	0.1	1	j	0	0.5824419724522159
0	27	128	n/a	n/a	n/a	j	8	0.09000000000000002	1	f	0	0.6434984111401718
0	28	128	n/a	n/a	n/a	j	8	0.08000000000000003	1	j	1	0.5984727836330421
0	29	88	n/a	n/a	n/a	j	8	0.07000000000000003	1	j	1	0.641928372962866
0	30	88	n/a	n/a	n/a	j	8	0.06000000000000003	1	f	0	0.5512293738429435
0	31	128	n/a	n/a	n/a	j	8	0.07000000000000003	1	j	1	0.5323045263940003
0	32	88	n/a	n/a	n/a	f	8	0.06000000000000003	1	j	0	0.6230089424061589
0	33	128	n/a	n/a	n/a	j	8	0.05000000000000003	1	f	0	0.5002101176942233
0	34	128	n/a	n/a	n/a	j	8	0.04000000000000003	1	f	0	0.5921872140024789
0	35	128	n/a	n/a	n/a	j	8	0.05000000000000003	1	f	0	0.4872566611738876
0	36	128	n/a	n/a	n/a	j	8	0.04000000000000003	0	j	1	0.4281768113432918
0	37	68	n/a	n/a	n/a	j	8	0.05000000000000003	0	j	1	0.4512669498217292
0	38	68	n/a	n/a	n/a	f	8	0.06000000000000003	0	j	0	0.4727993093547411
0	39	128	n/a	n/a	n/a	j	8	0.07000000000000003	0	j	1	0.4612328577495646
0	40	68	n/a	n/a	n/a	j	8	0.08000000000000003	0	j	1	0.4416625469748396
0	41	68	n/a	n/a	n/a	j	8	0.09000000000000002	0	j	1	0.3885703386913519
0	42	68	n/a	n/a	n/a	j	8	0.1	0	j	1	0.7841843242349569
0	43	68	n/a	n/a	n/a	j	8	0.11	2	j	1	1.213036819332046
0	44	108	n/a	n/a	n/a	f	8	0.12	2	j	0	0.3770620471623261
0	45	128	n/a	n/a	n/a	j	8	0.13	0	j	1	0.3318756240187213
0	46	68	n/a	n/a	n/a	j	8	0.14	0	j	1	0.4359950712241698
0	47	68	n/a	n/a	n/a	j	8	0.15	0	f	0	0.2967449148418382
0	48	128	n/a	n/a	n/a	j	8	0.14	0	f	0	0.5080625894188415
0	49	128	n/a	n/a	n/a	j	8	0.15	1	j	1	0.3908465662098024
0	50	88	n/a	n/a	n/a	f	8	0.14	1	j	0	0.5257783335400745
0	51	128	n/a	n/a	n/a	j	8	0.15	1	j	1	0.6034466144337784
0	52	88	n/a	n/a	n/a	j	8	0.14	1	j	1	0.6587349375186022
0	53	88	n/a	n/a	n/a	j	8	0.13	1	j	1	0.582577679422684
0	54	88	n/a	n/a	n/a	j	8	0.12	1	f	0	0.5696684131689835
0	55	128	n/a	n/a	n/a	j	8	0.11	1	j	1	0.6986518825870007
0	56	88	n/a	n/a	n/a	f	8	0.1	1	j	0	0.6135978364618495
0	57	128	n/a	n/a	n/a	j	8	0.11	1	f	0	0.5315136628050823
0	58	128	n/a	n/a	n/a	j	8	0.1	1	j	1	1.436476602830226
0	59	88	n/a	n/a	n/a	j	8	0.09000000000000002	2	j	1	0.6673614520404954
0	60	108	n/a	n/a	n/a	j	8	0.1	1	j	1	15.15886693820357
0	61	88	n/a	n/a	n/a	j	8	0.09000000000000002	2	j	1	0.7711025733442511
0	62	108	n/a	n/a	n/a	f	8	0.1	2	j	0	0.7134311107802205
0	63	128	n/a	n/a	n/a	j	8	0.11	2	j	1	0.5291042941971682
0	64	108	n/a	n/a	n/a	j	8	0.12	1	j	1	0.5944936619780492
0	65	88	n/a	n/a	n/a	j	8	0.11	1	j	1	0.5909672769485041
0	66	88	n/a	n/a	n/a	j	8	0.1	1	f	0	0.5328915444843005
0	67	128	n/a	n/a	n/a	j	8	0.09000000000000002	1	j	1	0.5003147488750983
0	68	88	n/a	n/a	n/a	f	8	0.08000000000000003	1	j	0	0.5592058634501882
0	69	128	n/a	n/a	n/a	j	8	0.09000000000000002	1	j	1	0.4581418183224741
0	70	88	n/a	n/a	n/a	j	8	0.08000000000000003	0	j	1	0.6416923112992663
0	71	68	n/a	n/a	n/a	j	8	0.09000000000000002	1	j	1	0.5758653171360493
1	0	91	f	1	4.577151111967396	f	11	0.1	0	f	1	0.8850157289125491
1	1	71	n/a	n/a	n/a	f	11	0.11	1	f	1	0.8399858249176759
1	2	91	n/a	n/a	n/a	j	11	0.1	1	f	0	0.8759367628372274
1	3	131	n/a	n/a	n/a	f	11	0.11	1	f	1	0.8511579851328861
1	4	91	n/a	n/a	n/a	f	11	0.1	1	j	0	0.8300857747963164
1	5	131	n/a	n/a	n/a	f	11	0.11	0	f	1	0.8976570024096873
1	6	71	n/a	n/a	n/a	f	11	0.12	1	f	1	0.8769947638793383
1	7	91	n/a	n/a	n/a	f	11	0.11	1	f	1	0.8331237858219538
1	8	91	n/a	n/a	n/a	j	11	0.1	1	f	0	0.7570092925161589
1	9	131	n/a	n/a	n/a	f	11	0.11	0	f	1	0.8267820517939981
1	10	71	n/a	n/a	n/a	f	11	0.12	0	f	1	0.8532688554259948
1	11	71	n/a	n/a	n/a	f	11	0.13	0	f	1	0.7945285580353811
1	12	71	n/a	n/a	n/a	f	11	0.14	0	j	0	0.8399199671112001
1	13	131	n/a	n/a	n/a	f	11	0.15	1	f	1	0.6277498476265464
1	14	91	n/a	n/a	n/a	j	11	0.14	1	f	0	0.7777048875577748
1	15	131	n/a	n/a	n/a	f	11	0.15	0	f	1	0.7345954079646617
1	16	71	n/a	n/a	n/a	f	11	0.16	0	f	1	0.7065613740414847
1	17	71	n/a	n/a	n/a	f	11	0.17	0	f	1	1.032704804878449
1	18	71	n/a	n/a	n/a	f	11	0.18	1	f	1	0.7184964581974782
1	19	91	n/a	n/a	n/a	f	11	0.17	0	f	1	0.7628538145218045
1	20	71	n/a	n/a	n/a	j	11	0.18	0	j	1	0.7435369564918801
1	21	71	n/a	n/a	n/a	f	11	0.1900000000000001	0	f	1	0.732243059144821
1	22	71	n/a	n/a	n/a	f	11	0.2000000000000001	0	f	1	0.7352628238731995
1	23	71	n/a	n/a	n/a	f	11	0.2100000000000001	0	f	1	0.7992657569702715
1	24	71	n/a	n/a	n/a	f	11	0.2200000000000001	1	f	1	0.7022247386921663
1	25	91	n/a	n/a	n/a	f	11	0.2100000000000001	0	f	1	0.6010329693963286
1	26	71	n/a	n/a	n/a	j	11	0.2200000000000001	0	f	0	0.8229417731636204
1	27	131	n/a	n/a	n/a	f	11	0.2300000000000001	1	f	1	0.725731406302657
1	28	91	n/a	n/a	n/a	f	11	0.2200000000000001	0	f	1	0.7296426744724158
1	29	71	n/a	n/a	n/a	f	11	0.2300000000000001	0	f	1	0.7226477794465609
1	30	71	n/a	n/a	n/a	f	11	0.2400000000000001	0	j	0	0.7349537769623566
1	31	131	n/a	n/a	n/a	f	11	0.2500000000000001	0	f	1	0.6614539232105017
1	32	71	n/a	n/a	n/a	j	11	0.2600000000000001	0	f	0	0.6964993879082613
1	33	131	n/a	n/a	n/a	f	11	0.2700000000000001	0	f	1	0.7343707502586767
1	34	71	n/a	n/a	n/a	f	11	0.2800000000000001	1	f	1	0.8888708326267079
1	35	91	n/a	n/a	n/a	f	11	0.2700000000000001	1	f	1	0.8034019679762423
1	36	91	n/a	n/a	n/a	f	11	0.2600000000000001	1	f	1	0.7530407194863074
1	37	91	n/a	n/a	n/a	f	11	0.2500000000000001	1	f	1	0.7838057132612448
1	38	91	n/a	n/a	n/a	j	11	0.2400000000000001	1	j	1	0.7405109195678961
1	39	91	n/a	n/a	n/a	f	11	0.2300000000000001	0	f	1	0.7437433679006062
1	40	71	n/a	n/a	n/a	f	11	0.2400000000000001	0	f	1	0.7220057373051532
1	41	71	n/a	n/a	n/a	f	11	0.2500000000000001	0	f	1	0.6966601835156325
1	42	71	n/a	n/a	n/a	f	11	0.2600000000000001	0	f	1	0.838389842712786
1	43	71	n/a	n/a	n/a	f	11	0.2700000000000001	1	f	1	0.7213314790569711
1	44	91	n/a	n/a	n/a	j	11	0.2600000000000001	1	f	0	0.7560513610660564
1	45	131	n/a	n/a	n/a	f	11	0.2700000000000001	1	j	0	0.8080747346102726
1	46	131	n/a	n/a	n/a	f	11	0.2600000000000001	1	f	1	0.6344642055628356
1	47	91	n/a	n/a	n/a	f	11	0.2500000000000001	0	f	1	0.7509181601344608
1	48	71	n/a	n/a	n/a	f	11	0.2600000000000001	1	f	1	0.6892481891845819
1	49	91	n/a	n/a	n/a	f	11	0.2500000000000001	0	f	1	0.7603201429592445
1	50	71	n/a	n/a	n/a	j	11	0.2600000000000001	0	f	0	0.4380466410075314
1	51	131	n/a	n/a	n/a	f	11	0.2500000000000001	0	f	1	0.8290884997404646
1	52	71	n/a	n/a	n/a	f	11	0.2600000000000001	1	f	1	0.6277723704115488
1	53	91	n/a	n/a	n/a	f	11	0.2500000000000001	1	j	0	0.7029383405752014
1	54	131	n/a	n/a	n/a	f	11	0.2600000000000001	0	f	1	0.7920596038457006
1	55	71	n/a	n/a	n/a	f	11	0.2700000000000001	1	f	1	0.7558480857405812
1	56	91	n/a	n/a	n/a	j	11	0.2600000000000001	1	f	0	0.7665592414850835
1	57	131	n/a	n/a	n/a	f	11	0.2500000000000001	1	f	1	0.7137760801124386
1	58	91	n/a	n/a	n/a	f	11	0.2400000000000001	0	f	1	0.6555922952538822
1	59	71	n/a	n/a	n/a	f	11	0.2500000000000001	0	j	0	0.7956230517011136
1	60	131	n/a	n/a	n/a	f	11	0.2600000000000001	1	f	1	0.6808209586306475
1	61	91	n/a	n/a	n/a	f	11	0.2500000000000001	0	f	1	0.7734372460690793
1	62	71	n/a	n/a	n/a	j	11	0.2600000000000001	0	f	0	0.6826059611630626
1	63	131	n/a	n/a	n/a	f	11	0.2500000000000001	0	f	1	0.759708891477203
1	64	71	n/a	n/a	n/a	f	11	0.2600000000000001	1	f	1	0.6542794160486665
1	65	91	n/a	n/a	n/a	f	11	0.2500000000000001	1	j	0	0.7949798692134209
1	66	131	n/a	n/a	n/a	f	11	0.2600000000000001	1	f	1	0.7766101087909192
1	67	91	n/a	n/a	n/a	f	11	0.2500000000000001	1	f	1	0.7464164526900277
1	68	91	n/a	n/a	n/a	j	11	0.2400000000000001	1	f	0	0.8394056491961237
1	69	131	n/a	n/a	n/a	f	11	0.2500000000000001	1	f	1	0.7328186732775066
1	70	91	n/a	n/a	n/a	f	11	0.2400000000000001	0	f	1	0.6895552404166665
1	71	71	n/a	n/a	n/a	f	11	0.2500000000000001	0	j	0	0.7761739078850951
2	0	127	f	1	5.698603986005764	f	7	0.1	2	f	1	0.537715128302807
2	1	107	n/a	n/a	n/a	f	7	0.11	1	f	1	0.5487304842972662
2	2	87	n/a	n/a	n/a	j	7	0.1	1	f	0	0.5637135579599999
2	3	127	n/a	n/a	n/a	f	7	0.09000000000000001	1	f	1	0.5667301866633352
2	4	87	n/a	n/a	n/a	f	7	0.08000000000000002	1	f	1	0.5554496889235452
2	5	87	n/a	n/a	n/a	f	7	0.07000000000000002	1	f	1	0.5906365625269245
2	6	87	n/a	n/a	n/a	f	7	0.06000000000000002	1	f	1	0.5646215971501078
2	7	87	n/a	n/a	n/a	f	7	0.05000000000000002	1	f	1	0.5863250158727169
2	8	87	n/a	n/a	n/a	j	7	0.04000000000000001	1	f	0	0.5755283305479679
2	9	127	n/a	n/a	n/a	f	7	0.03000000000000001	1	f	1	0.5564438278670423
2	10	87	n/a	n/a	n/a	f	7	0.02000000000000001	0	f	1	0.561955924902577
2	11	67	n/a	n/a	n/a	f	7	0.03000000000000001	1	f	1	0.5205838363908697
2	12	87	n/a	n/a	n/a	f	7	0.02000000000000001	0	f	1	0.6300842352502514
2	13	67	n/a	n/a	n/a	f	7	0.03000000000000001	2	f	1	0.5423864694603253
2	14	107	n/a	n/a	n/a	j	7	0.04000000000000001	0	j	1	0.5392580821353476
2	15	67	n/a	n/a	n/a	f	7	0.05000000000000002	1	f	1	0.5549841228639707
2	16	87	n/a	n/a	n/a	f	7	0.04000000000000001	1	f	1	0.5941221784451045
2	17	87	n/a	n/a	n/a	f	7	0.03000000000000001	1	f	1	0.5203409323294181
2	18	87	n/a	n/a	n/a	f	7	0.02000000000000001	0	f	1	0.5851284568780102
2	19	67	n/a	n/a	n/a	f	7	0.03000000000000001	1	f	1	0.5501451437303331
2	20	87	n/a	n/a	n/a	j	7	0.02000000000000001	0	j	1	0.5621001847903244
2	21	67	n/a	n/a	n/a	f	7	0.03000000000000001	1	f	1	0.5270481628540438
2	22	87	n/a	n/a	n/a	f	7	0.02000000000000001	0	f	1	0.6130014100926928
2	23	67	n/a	n/a	n/a	f	7	0.03000000000000001	1	f	1	0.5041518914222252
2	24	87	n/a	n/a	n/a	f	7	0.02000000000000001	0	f	1	0.5890137811074965
2	25	67	n/a	n/a	n/a	f	7	0.03000000000000001	1	f	1	0.5469879614247475
2	26	87	n/a	n/a	n/a	j	7	0.02000000000000001	0	j	1	0.5558491121046245
2	27	67	n/a	n/a	n/a	f	7	0.03000000000000001	1	f	1	0.609362126007909
2	28	87	n/a	n/a	n/a	f	7	0.02000000000000001	2	f	1	0.5577438776381314
2	29	107	n/a	n/a	n/a	f	7	0.03000000000000001	1	f	1	0.5469751319906209
2	30	87	n/a	n/a	n/a	f	7	0.02000000000000001	0	f	1	0.5718705150356982
2	31	67	n/a	n/a	n/a	f	7	0.03000000000000001	1	f	1	0.524836082564434
2	32	87	n/a	n/a	n/a	j	7	0.02000000000000001	1	f	0	0.5967718851752579
2	33	127	n/a	n/a	n/a	f	7	0.03000000000000001	1	f	1	0.580325970397098
2	34	87	n/a	n/a	n/a	f	7	0.02000000000000001	1	f	1	0.5541738725441974
2	35	87	n/a	n/a	n/a	f	7	0.01000000000000001	1	j	0	0.5426262373803183
2	36	127	n/a	n/a	n/a	f	7	0.02000000000000001	0	f	1	0.5887286824872717
2	37	67	n/a	n/a	n/a	f	7	0.03000000000000001	1	f	1	0.5545108591031749
2	38	87	n/a	n/a	n/a	j	7	0.02000000000000001	1	f	0	0.520630307495594
2	39	127	n/a	n/a	n/a	f	7	0.03000000000000001	0	f	1	0.5814395656343549
2	40	67	n/a	n/a	n/a	f	7	0.04000000000000001	1	f	1	0.5614852270518895
2	41	87	n/a	n/a	n/a	f	7	0.03000000000000001	1	f	1	0.5264987777918577
2	42	87	n/a	n/a	n/a	f	7	0.02000000000000001	0	f	1	0.5889576166810002
2	43	67	n/a	n/a	n/a	f	7	0.03000000000000001	1	f	1	0.558319776901044
2	44	87	n/a	n/a	n/a	j	7	0.02000000000000001	0	j	1	0.5083990058046766
2	45	67	n/a	n/a	n/a	f	7	0.03000000000000001	0	f	1	0.5723135583102703
2	46	67	n/a	n/a	n/a	f	7	0.04000000000000001	1	f	1	0.5967955483647529
2	47	87	n/a	n/a	n/a	f	7	0.03000000000000001	1	f	1	0.5632206224254332
2	48	87	n/a	n/a	n/a	f	7	0.02000000000000001	0	f	1	0.5582242688396946
2	49	67	n/a	n/a	n/a	f	7	0.03000000000000001	1	f	1	0.5950886628415901
2	50	87	n/a	n/a	n/a	j	7	0.02000000000000001	1	j	1	0.4969636995228939
2	51	87	n/a	n/a	n/a	f	7	0.01000000000000001	0	f	1	0.5661454493238125
2	52	67	n/a	n/a	n/a	f	7	0.02000000000000001	1	f	1	0.5950439023145009
2	53	87	n/a	n/a	n/a	f	7	0.01000000000000001	1	f	1	0.5426062805054244
2	54	87	n/a	n/a	n/a	f	7	1.040834085586084e-17	0	f	1	0.570855848985957
2	55	67	n/a	n/a	n/a	f	7	0.01000000000000001	0	f	1	0.5559126891312189
2	56	67	n/a	n/a	n/a	j	7	0.02000000000000001	0	j	1	0.503984538547229
2	57	67	n/a	n/a	n/a	f	7	0.03000000000000001	0	f	1	0.5450646860408597
2	58	67	n/a	n/a	n/a	f	7	0.04000000000000001	1	f	1	0.583995760011021
2	59	87	n/a	n/a	n/a	f	7	0.03000000000000001	1	f	1	0.5954515933990479
2	60	87	n/a	n/a	n/a	f	7	0.02000000000000001	1	f	1	0.5948104065610096
2	61	87	n/a	n/a	n/a	f	7	0.01000000000000001	1	f	1	0.5078775603906251
2	62	87	n/a	n/a	n/a	j	7	1.040834085586084e-17	0	j	1	0.5324459353287239
2	63	67	n/a	n/a	n/a	f	7	0.01000000000000001	0	f	1	0.6016815687762573
2	64	67	n/a	n/a	n/a	f	7	0.02000000000000001	1	f	1	0.521240133442916
2	65	87	n/a	n/a	n/a	f	7	0.01000000000000001	0	f	1	0.5665280517132487
2	66	67	n/a	n/a	n/a	f	7	0.02000000000000001	0	f	1	0.5735685625404585
2	67	67	n/a	n/a	n/a	f	7	0.03000000000000001	1	f	1	0.5545427901670337
2	68	87	n/a	n/a	n/a	j	7	0.02000000000000001	0	j	1	0.5819997844519094
2	69	67	n/a	n/a	n/a	f	7	0.03000000000000001	1	f	1	0.5745364723843522
2	70	87	n/a	n/a	n/a	f	7	0.02000000000000001	1	f	1	0.5799838520179037
2	71	87	n/a	n/a	n/a	f	7	0.01000000000000001	1	f	1	0.6266696089005563
3	0	92	j	0	1.346888347965432	j	12	0.1	0	j	1	0.8637308349716477
3	1	72	n/a	n/a	n/a	j	12	0.11	0	j	1	0.8750997132447083
3	2	72	n/a	n/a	n/a	f	12	0.12	0	j	0	0.8987492152664345
3	3	132	n/a	n/a	n/a	j	12	0.11	1	j	1	0.994719117967179
3	4	92	n/a	n/a	n/a	j	12	0.1	1	j	1	0.8747384932939894
3	5	92	n/a	n/a	n/a	j	12	0.09000000000000001	0	j	1	0.896008276991779
3	6	72	n/a	n/a	n/a	j	12	0.1	1	j	1	0.925394818856148
3	7	92	n/a	n/a	n/a	j	12	0.09000000000000001	1	j	1	0.8498220129113179
3	8	92	n/a	n/a	n/a	f	12	0.08000000000000002	0	f	1	0.7547692725202069
3	9	72	n/a	n/a	n/a	j	12	0.09000000000000001	0	j	1	0.9947162669850513
3	10	72	n/a	n/a	n/a	j	12	0.1	1	j	1	0.8146354244090617
3	11	92	n/a	n/a	n/a	j	12	0.09000000000000001	0	j	1	0.8302163499465678
3	12	72	n/a	n/a	n/a	j	12	0.1	0	j	1	0.8661541733599734
3	13	72	n/a	n/a	n/a	j	12	0.11	0	j	1	0.8374886459496338
3	14	72	n/a	n/a	n/a	f	12	0.12	0	f	1	0.9284807264630217
3	15	72	n/a	n/a	n/a	j	12	0.13	1	j	1	0.8749243775673676
3	16	92	n/a	n/a	n/a	j	12	0.12	1	j	1	0.791414710751269
3	17	92	n/a	n/a	n/a	j	12	0.11	0	j	1	0.814169573248364
3	18	72	n/a	n/a	n/a	j	12	0.12	0	j	1	0.7541705654002726
3	19	72	n/a	n/a	n/a	j	12	0.13	0	j	1	0.8640729533217382
3	20	72	n/a	n/a	n/a	f	12	0.14	1	f	1	0.9891385972732678
3	21	92	n/a	n/a	n/a	j	12	0.13	1	j	1	0.7780378827592358
3	22	92	n/a	n/a	n/a	j	12	0.12	0	j	1	0.892968840431422
3	23	72	n/a	n/a	n/a	j	12	0.13	1	j	1	0.914023089571856
3	24	92	n/a	n/a	n/a	j	12	0.12	1	j	1	0.9069195719785057
3	25	92	n/a	n/a	n/a	j	12	0.11	1	j	1	0.896035361365648
3	26	92	n/a	n/a	n/a	f	12	0.1	1	f	1	0.7407481216359884
3	27	92	n/a	n/a	n/a	j	12	0.09000000000000002	0	j	1	0.8378207858477253
3	28	72	n/a	n/a	n/a	j	12	0.1	0	j	1	0.9338134964636993
3	29	72	n/a	n/a	n/a	j	12	0.11	1	j	1	0.8696740011218935
3	30	92	n/a	n/a	n/a	j	12	0.1	0	j	1	0.945612303505186
3	31	72	n/a	n/a	n/a	j	12	0.11	1	j	1	0.8887211558758281
3	32	92	n/a	n/a	n/a	f	12	0.1	0	f	1	0.8865529807226267
3	33	72	n/a	n/a	n/a	j	12	0.11	1	j	1	0.831503000081284
3	34	92	n/a	n/a	n/a	j	12	0.1	0	j	1	0.9045891757123172
3	35	72	n/a	n/a	n/a	j	12	0.11	1	j	1	0.9042233941727318
3	36	92	n/a	n/a	n/a	j	12	0.1	1	f	0	0.7493307309341617
3	37	132	n/a	n/a	n/a	j	12	0.09000000000000002	0	j	1	0.4919739032047801
3	38	72	n/a	n/a	n/a	f	12	0.1	0	j	0	0.8903194188314956
3	39	132	n/a	n/a	n/a	j	12	0.11	0	f	0	0.6950847284751944
3	40	132	n/a	n/a	n/a	j	12	0.1	0	j	1	0.8596242742205504
3	41	72	n/a	n/a	n/a	j	12	0.11	0	j	1	0.8332962704880629
3	42	72	n/a	n/a	n/a	j	12	0.12	0	j	1	0.9269870947464369
3	43	72	n/a	n/a	n/a	j	12	0.13	1	j	1	0.8110158121562563
3	44	92	n/a	n/a	n/a	f	12	0.12	1	j	0	0.8901229858747683
3	45	132	n/a	n/a	n/a	j	12	0.13	1	f	0	0.8949870536453091
3	46	132	n/a	n/a	n/a	j	12	0.12	1	j	1	1.31204416291439
3	47	92	n/a	n/a	n/a	j	12	0.11	2	j	1	0.7728473770257551
3	48	112	n/a	n/a	n/a	j	12	0.12	0	j	1	0.7788421460136306
3	49	72	n/a	n/a	n/a	j	12	0.13	0	j	1	0.9586897778790444
3	50	72	n/a	n/a	n/a	f	12	0.14	0	j	0	0.7086163650092203
3	51	132	n/a	n/a	n/a	j	12	0.13	0	j	1	1.045571591414046
3	52	72	n/a	n/a	n/a	j	12	0.14	1	j	1	0.8023701960337348
3	53	92	n/a	n/a	n/a	j	12	0.13	0	j	1	0.7116814604378305
3	54	72	n/a	n/a	n/a	j	12	0.14	0	j	1	0.7665484077297151
3	55	72	n/a	n/a	n/a	j	12	0.15	0	j	1	0.8274380637449212
3	56	72	n/a	n/a	n/a	f	12	0.16	1	f	1	0.77031142465421
3	57	92	n/a	n/a	n/a	j	12	0.15	0	j	1	0.8497957838408183
3	58	72	n/a	n/a	n/a	j	12	0.16	1	j	1	0.9012692021206021
3	59	92	n/a	n/a	n/a	j	12	0.15	1	j	1	0.8163614115619566
3	60	92	n/a	n/a	n/a	j	12	0.14	0	j	1	0.9322052550269291
3	61	72	n/a	n/a	n/a	j	12	0.15	1	j	1	0.8111540849786252
3	62	92	n/a	n/a	n/a	f	12	0.14	0	f	1	0.8990368797967676
3	63	72	n/a	n/a	n/a	j	12	0.15	1	j	1	0.8801140280556865
3	64	92	n/a	n/a	n/a	j	12	0.14	1	j	1	1.051944401202491
3	65	92	n/a	n/a	n/a	j	12	0.13	1	j	1	0.8578501054143999
3	66	92	n/a	n/a	n/a	j	12	0.12	0	j	1	0.9279815187619533
3	67	72	n/a	n/a	n/a	j	12	0.13	1	j	1	1.346840166283073
3	68	92	n/a	n/a	n/a	f	12	0.12	2	f	1	0.6967177734477445
3	69	112	n/a	n/a	n/a	j	12	0.13	0	j	1	0.6617056652903557
3	70	72	n/a	n/a	n/a	j	12	0.14	0	j	1	0.8426865642541088
3	71	72	n/a	n/a	n/a	j	12	0.15	1	j	1	0.9533262172772083
4	0	82	j	1	1.363060568080982	j	2	0.1	2	j	1	0.3679329037258867
4	1	102	n/a	n/a	n/a	f	2	0.11	1	f	1	0.3595929133589379
4	2	82	n/a	n/a	n/a	j	2	0.1	1	j	1	0.4604146246565506
4	3	82	n/a	n/a	n/a	j	2	0.09000000000000001	1	j	1	0.3844959941052366
4	4	82	n/a	n/a	n/a	j	2	0.08000000000000002	1	f	0	0.3230997178179678
4	5	122	n/a	n/a	n/a	f	2	0.07000000000000002	1	j	0	0.468069523019949
4	6	122	n/a	n/a	n/a	j	2	0.06000000000000002	2	j	1	0.4663446762715466
4	7	102	n/a	n/a	n/a	j	2	0.07000000000000002	2	j	1	0.4048956567712594
4	8	102	n/a	n/a	n/a	j	2	0.08000000000000002	1	j	1	0.4404910766752437
4	9	82	n/a	n/a	n/a	f	2	0.07000000000000002	1	f	1	0.4062481646833476
4	10	82	n/a	n/a	n/a	j	2	0.06000000000000002	1	j	1	0.4287951902661007
4	11	82	n/a	n/a	n/a	j	2	0.05000000000000002	1	j	1	0.403331035427982
4	12	82	n/a	n/a	n/a	j	2	0.04000000000000001	1	j	1	0.4373424473742489
4	13	82	n/a	n/a	n/a	f	2	0.03000000000000001	2	f	1	0.3422469421639107
4	14	102	n/a	n/a	n/a	j	2	0.04000000000000001	0	j	1	0.5351697676815093
4	15	62	n/a	n/a	n/a	j	2	0.05000000000000002	2	j	1	0.4242139403067995
4	16	102	n/a	n/a	n/a	j	2	0.06000000000000002	1	j	1	0.4309918752405792
4	17	82	n/a	n/a	n/a	f	2	0.05000000000000002	1	f	1	0.4322115272225346
4	18	82	n/a	n/a	n/a	j	2	0.04000000000000001	2	j	1	0.4457708183326758
4	19	102	n/a	n/a	n/a	j	2	0.05000000000000002	2	j	1	0.408804644132033
4	20	102	n/a	n/a	n/a	j	2	0.06000000000000002	1	j	1	0.4365952038497198
4	21	82	n/a	n/a	n/a	f	2	0.05000000000000002	2	f	1	0.4359223710489459
4	22	102	n/a	n/a	n/a	j	2	0.06000000000000002	1	j	1	0.4570233763661236
4	23	82	n/a	n/a	n/a	j	2	0.05000000000000002	2	j	1	0.4217980144603644
4	24	102	n/a	n/a	n/a	j	2	0.06000000000000002	1	j	1	0.4169299552449957
4	25	82	n/a	n/a	n/a	f	2	0.05000000000000002	1	f	1	0.4254395793541335
4	26	82	n/a	n/a	n/a	j	2	0.04000000000000001	1	j	1	0.4548794346337672
4	27	82	n/a	n/a	n/a	j	2	0.03000000000000001	2	j	1	0.4057475314766634
4	28	102	n/a	n/a	n/a	j	2	0.04000000000000001	2	f	0	0.3949343104322907
4	29	122	n/a	n/a	n/a	f	2	0.03000000000000001	2	j	0	0.4686981655249838
4	30	122	n/a	n/a	n/a	j	2	0.02000000000000001	2	j	1	0.3953984510153532
4	31	102	n/a	n/a	n/a	j	2	0.03000000000000001	1	j	1	0.4404500224918593
4	32	82	n/a	n/a	n/a	j	2	0.02000000000000001	2	j	1	0.4386932446795981
4	33	102	n/a	n/a	n/a	f	2	0.03000000000000001	2	f	1	0.423643457936123
4	34	102	n/a	n/a	n/a	j	2	0.04000000000000001	1	j	1	0.4546074505487923
4	35	82	n/a	n/a	n/a	j	2	0.03000000000000001	2	j	1	0.4276639188756235
4	36	102	n/a	n/a	n/a	j	2	0.04000000000000001	2	j	1	0.4320969175896607
4	37	102	n/a	n/a	n/a	f	2	0.05000000000000002	1	f	1	0.46095118028461
4	38	82	n/a	n/a	n/a	j	2	0.04000000000000001	2	j	1	0.4094538137433119
4	39	102	n/a	n/a	n/a	j	2	0.05000000000000002	1	j	1	0.4494217914761975
4	40	82	n/a	n/a	n/a	j	2	0.04000000000000001	2	j	1	0.456268435169477
4	41	102	n/a	n/a	n/a	f	2	0.05000000000000002	2	f	1	0.4593837079592049
4	42	102	n/a	n/a	n/a	j	2	0.06000000000000002	2	j	1	0.3954617428826168
4	43	102	n/a	n/a	n/a	j	2	0.07000000000000002	1	j	1	0.4122417932958342
4	44	82	n/a	n/a	n/a	j	2	0.06000000000000002	1	f	0	0.5285315310757142
4	45	122	n/a	n/a	n/a	f	2	0.05000000000000002	2	f	1	0.4739117642457131
4	46	102	n/a	n/a	n/a	j	2	0.06000000000000002	2	f	0	0.429341724346159
4	47	122	n/a	n/a	n/a	j	2	0.07000000000000002	1	j	1	0.3812681073322892
4	48	82	n/a	n/a	n/a	j	2	0.06000000000000002	1	j	1	0.4599134212476201
4	49	82	n/a	n/a	n/a	f	2	0.05000000000000002	1	j	0	0.42628375638742
4	50	122	n/a	n/a	n/a	j	2	0.06000000000000002	1	j	1	0.5106310430273879
4	51	82	n/a	n/a	n/a	j	2	0.05000000000000002	2	j	1	0.435091023449786
4	52	102	n/a	n/a	n/a	j	2	0.06000000000000002	2	f	0	0.4351249501632992
4	53	122	n/a	n/a	n/a	f	2	0.05000000000000002	2	j	0	0.4257762808119878
4	54	122	n/a	n/a	n/a	j	2	0.06000000000000002	1	j	1	0.4439929432410281
4	55	82	n/a	n/a	n/a	j	2	0.05000000000000002	2	j	1	0.4651663636032026
4	56	102	n/a	n/a	n/a	j	2	0.06000000000000002	2	j	1	0.4208409383427352
4	57	102	n/a	n/a	n/a	f	2	0.07000000000000002	2	j	0	0.4497237109171692
4	58	122	n/a	n/a	n/a	j	2	0.06000000000000002	2	j	1	0.4709487341460772
4	59	102	n/a	n/a	n/a	j	2	0.07000000000000002	2	j	1	0.4299253212520853
4	60	102	n/a	n/a	n/a	j	2	0.08000000000000002	1	j	1	0.4400517397152726
4	61	82	n/a	n/a	n/a	f	2	0.07000000000000002	1	f	1	0.4508384465880226
4	62	82	n/a	n/a	n/a	j	2	0.06000000000000002	2	j	1	0.4108188659884036
4	63	102	n/a	n/a	n/a	j	2	0.07000000000000002	1	j	1	0.4288222746399697
4	64	82	n/a	n/a	n/a	j	2	0.06000000000000002	1	j	1	0.4448177335725632
4	65	82	n/a	n/a	n/a	f	2	0.05000000000000002	2	f	1	0.4646888233837672
4	66	102	n/a	n/a	n/a	j	2	0.06000000000000002	2	j	1	0.3679788046283647
4	67	102	n/a	n/a	n/a	j	2	0.07000000000000002	1	j	1	0.4599399354192428
4	68	82	n/a	n/a	n/a	j	2	0.06000000000000002	2	j	1	0.4332102277548984
4	69	102	n/a	n/a	n/a	f	2	0.07000000000000002	1	f	1	0.3976068250194658
4	70	82	n/a	n/a	n/a	j	2	0.06000000000000002	1	j	1	0.4746681309479754
4	71	82	n/a	n/a	n/a	j	2	0.05000000000000002	2	j	1	0.4385350149532314
5	0	106	j	1	1.153998308785958	j	6	0.1	0	j	1	0.5254624442604836
5	1	66	n/a	n/a	n/a	f	6	0.11	1	f	1	0.5393974953331053
5	2	86	n/a	n/a	n/a	j	6	0.1	1	j	1	0.4904269580147229
5	3	86	n/a	n/a	n/a	j	6	0.09000000000000001	0	j	1	0.5512980825733393
5	4	66	n/a	n/a	n/a	j	6	0.1	1	j	1	0.5332938186766114
5	5	86	n/a	n/a	n/a	f	6	0.09000000000000001	1	f	1	0.5138620658835862
5	6	86	n/a	n/a	n/a	j	6	0.08000000000000002	1	j	1	0.511156764900079
5	7	86	n/a	n/a	n/a	j	6	0.07000000000000002	0	j	1	0.5139376169827301
5	8	66	n/a	n/a	n/a	j	6	0.08000000000000002	1	j	1	0.4832151029258966
5	9	86	n/a	n/a	n/a	f	6	0.07000000000000002	0	f	1	0.545739514491288
5	10	66	n/a	n/a	n/a	j	6	0.08000000000000002	1	j	1	0.5112206269986928
5	11	86	n/a	n/a	n/a	j	6	0.07000000000000002	0	j	1	0.4980550571053755
5	12	66	n/a	n/a	n/a	j	6	0.08000000000000002	0	j	1	0.5358537193387747
5	13	66	n/a	n/a	n/a	f	6	0.09000000000000001	1	f	1	0.5501052298932336
5	14	86	n/a	n/a	n/a	j	6	0.08000000000000002	1	j	1	0.515017855737824
5	15	86	n/a	n/a	n/a	j	6	0.07000000000000002	0	j	1	0.5590214046242181
5	16	66	n/a	n/a	n/a	j	6	0.08000000000000002	1	j	1	0.4877721194934566
5	17	86	n/a	n/a	n/a	f	6	0.07000000000000002	0	f	1	0.5456012416689191
5	18	66	n/a	n/a	n/a	j	6	0.08000000000000002	0	f	0	0.4670140878588427
5	19	126	n/a	n/a	n/a	j	6	0.07000000000000002	0	j	1	0.4674058133969083
5	20	66	n/a	n/a	n/a	j	6	0.08000000000000002	0	j	1	0.5126210314920172
5	21	66	n/a	n/a	n/a	f	6	0.09000000000000001	1	f	1	0.5019295475794934
5	22	86	n/a	n/a	n/a	j	6	0.08000000000000002	0	j	1	0.4607547473278828
5	23	66	n/a	n/a	n/a	j	6	0.09000000000000001	0	j	1	0.5131265113595873
5	24	66	n/a	n/a	n/a	j	6	0.1	1	j	1	0.5027149943052791
5	25	86	n/a	n/a	n/a	f	6	0.09000000000000001	1	f	1	0.4888172911014408
5	26	86	n/a	n/a	n/a	j	6	0.08000000000000002	0	j	1	1.428596476500388
5	27	66	n/a	n/a	n/a	j	6	0.09000000000000001	2	j	1	0.4647504047024995
5	28	106	n/a	n/a	n/a	j	6	0.1	0	j	1	0.4841442393953912
5	29	66	n/a	n/a	n/a	f	6	0.11	1	f	1	0.464227248710813
5	30	86	n/a	n/a	n/a	j	6	0.1	0	j	1	0.516001731128199
5	31	66	n/a	n/a	n/a	j	6	0.11	1	j	1	0.4405506623152178
5	32	86	n/a	n/a	n/a	j	6	0.1	0	j	1	0.5175512422283646
5	33	66	n/a	n/a	n/a	f	6	0.11	1	f	1	0.5324134340917226
5	34	86	n/a	n/a	n/a	j	6	0.1	1	j	1	0.5051158099086024
5	35	86	n/a	n/a	n/a	j	6	0.09000000000000001	1	j	1	0.4270258681208361
5	36	86	n/a	n/a	n/a	j	6	0.08000000000000002	0	j	1	0.5483456011279486
5	37	66	n/a	n/a	n/a	f	6	0.09000000000000001	1	f	1	0.4742855285585392
5	38	86	n/a	n/a	n/a	j	6	0.08000000000000002	0	j	1	0.4913087681052275
5	39	66	n/a	n/a	n/a	j	6	0.09000000000000001	0	j	1	0.4789004201884381
5	40	66	n/a	n/a	n/a	j	6	0.1	0	j	1	0.5722568236815277
5	41	66	n/a	n/a	n/a	f	6	0.11	1	f	1	0.5052315599459689
5	42	86	n/a	n/a	n/a	j	6	0.1	1	j	1	0.495143344742246
5	43	86	n/a	n/a	n/a	j	6	0.09000000000000001	0	j	1	0.4943268222559709
5	44	66	n/a	n/a	n/a	j	6	0.1	1	j	1	0.5339572431694251
5	45	86	n/a	n/a	n/a	f	6	0.09000000000000001	1	f	1	0.5198585454782005
5	46	86	n/a	n/a	n/a	j	6	0.08000000000000002	1	j	1	0.5020011073211208
5	47	86	n/a	n/a	n/a	j	6	0.07000000000000002	0	j	1	0.4700076235167217
5	48	66	n/a	n/a	n/a	j	6	0.08000000000000002	0	j	1	0.4979432984255254
5	49	66	n/a	n/a	n/a	f	6	0.09000000000000001	0	f	1	0.5008729720138945
5	50	66	n/a	n/a	n/a	j	6	0.1	1	j	1	0.5439171640318818
5	51	86	n/a	n/a	n/a	j	6	0.09000000000000001	1	j	1	0.4689453460159712
5	52	86	n/a	n/a	n/a	j	6	0.08000000000000002	0	j	1	0.4908637291227933
5	53	66	n/a	n/a	n/a	f	6	0.09000000000000001	0	f	1	0.4729518371459562
5	54	66	n/a	n/a	n/a	j	6	0.1	0	j	1	0.5568480977381114
5	55	66	n/a	n/a	n/a	j	6	0.11	1	j	1	0.4838431752286851
5	56	86	n/a	n/a	n/a	j	6	0.1	0	j	1	0.4937184217560571
5	57	66	n/a	n/a	n/a	f	6	0.11	0	j	0	0.4977066665596794
5	58	126	n/a	n/a	n/a	j	6	0.1	0	f	0	0.4997271606116556
5	59	126	n/a	n/a	n/a	j	6	0.09000000000000001	1	j	1	0.08322314271936193
5	60	86	n/a	n/a	n/a	j	6	0.08000000000000002	0	j	1	0.3998536873841658
5	61	66	n/a	n/a	n/a	f	6	0.09000000000000001	0	j	0	0.4863175462814979
5	62	126	n/a	n/a	n/a	j	6	0.1	0	j	1	0.5105640448455233
5	63	66	n/a	n/a	n/a	j	6	0.11	1	j	1	0.4986064378754236
5	64	86	n/a	n/a	n/a	j	6	0.1	1	j	1	0.5075619562121574
5	65	86	n/a	n/a	n/a	f	6	0.09000000000000001	1	f	1	0.5074821285670623
5	66	86	n/a	n/a	n/a	j	6	0.08000000000000002	1	j	1	0.4893866330967285
5	67	86	n/a	n/a	n/a	j	6	0.07000000000000002	0	j	1	0.5276711033657193
5	68	66	n/a	n/a	n/a	j	6	0.08000000000000002	1	j	1	0.4781976520316675
5	69	86	n/a	n/a	n/a	f	6	0.07000000000000002	1	j	0	0.4626067480712663
5	70	126	n/a	n/a	n/a	j	6	0.08000000000000002	0	j	1	0.4953366416157223
5	71	66	n/a	n/a	n/a	j	6	0.09000000000000001	0	j	1	0.4613200979074463
6	0	65	f	1	1.328736688010395	f	5	0.1	0	f	1	0.5965155815065373
6	1	65	n/a	n/a	n/a	j	5	0.11	1	j	1	0.53366815316258
6	2	85	n/a	n/a	n/a	f	5	0.1	1	f	1	0.500919728219742
6	3	85	n/a	n/a	n/a	f	5	0.09000000000000001	1	f	1	0.6160608035570476
6	4	85	n/a	n/a	n/a	f	5	0.08000000000000002	1	f	1	0.5825383357878309
6	5	85	n/a	n/a	n/a	j	5	0.07000000000000002	1	j	1	0.5638290229253471
6	6	85	n/a	n/a	n/a	f	5	0.06000000000000002	1	f	1	0.569164073705906
6	7	85	n/a	n/a	n/a	f	5	0.05000000000000002	1	f	1	0.5819216674426571
6	8	85	n/a	n/a	n/a	f	5	0.04000000000000001	1	f	1	0.5987268065218814
6	9	85	n/a	n/a	n/a	j	5	0.03000000000000001	1	j	1	0.5936472041066736
6	10	85	n/a	n/a	n/a	f	5	0.02000000000000001	1	f	1	0.5438179496850353
6	11	85	n/a	n/a	n/a	f	5	0.01000000000000001	0	f	1	0.5976497038791422
6	12	65	n/a	n/a	n/a	f	5	0.02000000000000001	1	f	1	0.507679701957386
6	13	85	n/a	n/a	n/a	j	5	0.01000000000000001	0	j	1	0.575530041125603
6	14	65	n/a	n/a	n/a	f	5	0.02000000000000001	1	f	1	0.6205448349064682
6	15	85	n/a	n/a	n/a	f	5	0.01000000000000001	2	f	1	0.5294247450947296
6	16	105	n/a	n/a	n/a	f	5	0.02000000000000001	0	f	1	0.6204744155402295
6	17	65	n/a	n/a	n/a	j	5	0.03000000000000001	2	j	1	0.5281657495070249
6	18	105	n/a	n/a	n/a	f	5	0.04000000000000001	0	f	1	0.5771322954678908
6	19	65	n/a	n/a	n/a	f	5	0.05000000000000002	1	f	1	0.5731597310805228
6	20	85	n/a	n/a	n/a	f	5	0.04000000000000001	1	f	1	0.5844678833382204
6	21	85	n/a	n/a	n/a	j	5	0.03000000000000001	1	j	1	0.5428520355198998
6	22	85	n/a	n/a	n/a	f	5	0.02000000000000001	0	f	1	0.5471336468181107
6	23	65	n/a	n/a	n/a	f	5	0.03000000000000001	0	f	1	0.5342374951578677
6	24	65	n/a	n/a	n/a	f	5	0.04000000000000001	0	f	1	0.5616882172471378
6	25	65	n/a	n/a	n/a	j	5	0.05000000000000002	1	j	1	0.5782507373951375
6	26	85	n/a	n/a	n/a	f	5	0.04000000000000001	1	f	1	0.5742328423366416
6	27	85	n/a	n/a	n/a	f	5	0.03000000000000001	1	f	1	0.533823817037046
6	28	85	n/a	n/a	n/a	f	5	0.02000000000000001	0	f	1	0.5706525736895856
6	29	65	n/a	n/a	n/a	j	5	0.03000000000000001	1	j	1	0.5117201198008843
6	30	85	n/a	n/a	n/a	f	5	0.02000000000000001	0	f	1	0.6129452456661966
6	31	65	n/a	n/a	n/a	f	5	0.03000000000000001	1	f	1	0.5149417344073299
6	32	85	n/a	n/a	n/a	f	5	0.02000000000000001	0	f	1	0.5619180067733396
6	33	65	n/a	n/a	n/a	j	5	0.03000000000000001	1	j	1	0.582873326697154
6	34	85	n/a	n/a	n/a	f	5	0.02000000000000001	1	f	1	0.5539067351201084
6	35	85	n/a	n/a	n/a	f	5	0.01000000000000001	0	f	1	0.5049669884319883
6	36	65	n/a	n/a	n/a	f	5	0.02000000000000001	0	f	1	0.5849879032757599
6	37	65	n/a	n/a	n/a	j	5	0.03000000000000001	1	j	1	0.5509648022707552
6	38	85	n/a	n/a	n/a	f	5	0.02000000000000001	0	f	1	0.5807373677089345
6	39	65	n/a	n/a	n/a	f	5	0.03000000000000001	1	f	1	0.5281802895478904
6	40	85	n/a	n/a	n/a	f	5	0.02000000000000001	0	f	1	0.5886728031327948
6	41	65	n/a	n/a	n/a	j	5	0.03000000000000001	1	j	1	0.5192883481795434
6	42	85	n/a	n/a	n/a	f	5	0.02000000000000001	0	f	1	0.6598277206066996
6	43	65	n/a	n/a	n/a	f	5	0.03000000000000001	2	f	1	0.5047434710722882
6	44	105	n/a	n/a	n/a	f	5	0.04000000000000001	0	f	1	0.5755907671409659
6	45	65	n/a	n/a	n/a	j	5	0.05000000000000002	1	j	1	0.5081697865098249
6	46	85	n/a	n/a	n/a	f	5	0.04000000000000001	0	f	1	0.5385025707364548
6	47	65	n/a	n/a	n/a	f	5	0.05000000000000002	1	f	1	0.5061909168725833
6	48	85	n/a	n/a	n/a	f	5	0.04000000000000001	0	f	1	0.5664795849297661
6	49	65	n/a	n/a	n/a	j	5	0.05000000000000002	1	j	1	0.5481178073096089
6	50	85	n/a	n/a	n/a	f	5	0.04000000000000001	1	f	1	0.5794033911952283
6	51	85	n/a	n/a	n/a	f	5	0.03000000000000001	1	f	1	0.452296155912336
6	52	85	n/a	n/a	n/a	f	5	0.02000000000000001	0	f	1	0.5543968196725473
6	53	65	n/a	n/a	n/a	j	5	0.03000000000000001	1	j	1	0.5211831137130503
6	54	85	n/a	n/a	n/a	f	5	0.02000000000000001	0	f	1	0.5318147269426845
6	55	65	n/a	n/a	n/a	f	5	0.03000000000000001	0	f	1	0.521216470253421
6	56	65	n/a	n/a	n/a	f	5	0.04000000000000001	0	f	1	0.5301158241636585
6	57	65	n/a	n/a	n/a	j	5	0.05000000000000002	0	j	1	0.4751656280423049
6	58	65	n/a	n/a	n/a	f	5	0.06000000000000002	0	f	1	0.5141782402351964
6	59	65	n/a	n/a	n/a	f	5	0.07000000000000002	0	f	1	0.6281988779664971
6	60	65	n/a	n/a	n/a	f	5	0.08000000000000002	0	j	0	0.5867258645303082
6	61	125	n/a	n/a	n/a	j	5	0.07000000000000002	0	f	0	0.5060215682897251
6	62	125	n/a	n/a	n/a	f	5	0.06000000000000002	0	j	0	0.09793109621386975
6	63	125	n/a	n/a	n/a	f	5	0.07000000000000002	0	f	1	0.8351382928085513
6	64	65	n/a	n/a	n/a	f	5	0.08000000000000002	2	f	1	0.6640699882991612
6	65	105	n/a	n/a	n/a	j	5	0.09000000000000001	1	j	1	0.6120269429520704
6	66	85	n/a	n/a	n/a	f	5	0.08000000000000002	1	f	1	0.5305999216507189
6	67	85	n/a	n/a	n/a	f	5	0.07000000000000002	1	f	1	0.5689736278145574
6	68	85	n/a	n/a	n/a	f	5	0.06000000000000002	1	f	1	0.5608625716122333
6	69	85	n/a	n/a	n/a	j	5	0.05000000000000002	1	j	1	0.5847797812602948
6	70	85	n/a	n/a	n/a	f	5	0.04000000000000001	1	f	1	1.099638266838156
6	71	85	n/a	n/a	n/a	f	5	0.03000000000000001	2	f	1	0.5125081324367784
7	0	110	j	1	1.422435495012905	j	10	0.1	0	j	1	0.8588639161316678
7	1	70	n/a	n/a	n/a	f	10	0.11	0	j	0	1.09352432662854
7	2	130	n/a	n/a	n/a	j	10	0.12	1	j	1	1.027638887229841
7	3	90	n/a	n/a	n/a	j	10	0.11	1	j	1	0.9943054398463573
7	4	90	n/a	n/a	n/a	j	10	0.1	1	j	1	0.9754820875532459
7	5	90	n/a	n/a	n/a	f	10	0.09000000000000001	1	f	1	0.8534672840905841
7	6	90	n/a	n/a	n/a	j	10	0.08000000000000002	0	j	1	0.8820712301821914
7	7	70	n/a	n/a	n/a	j	10	0.09000000000000001	0	j	1	1.056507975066779
7	8	70	n/a	n/a	n/a	j	10	0.1	1	j	1	1.061417658667779
7	9	90	n/a	n/a	n/a	f	10	0.09000000000000001	1	f	1	0.8332671904645395
7	10	90	n/a	n/a	n/a	j	10	0.08000000000000002	0	j	1	0.9099869481869973
7	11	70	n/a	n/a	n/a	j	10	0.09000000000000001	1	j	1	1.001957487256732
7	12	90	n/a	n/a	n/a	j	10	0.08000000000000002	1	j	1	0.9612445467791986
7	13	90	n/a	n/a	n/a	f	10	0.07000000000000002	1	f	1	0.8770138654799666
7	14	90	n/a	n/a	n/a	j	10	0.06000000000000002	0	j	1	0.9140199534886051
7	15	70	n/a	n/a	n/a	j	10	0.07000000000000002	0	j	1	1.020936218294082
7	16	70	n/a	n/a	n/a	j	10	0.08000000000000002	1	j	1	0.9248856327030808
7	17	90	n/a	n/a	n/a	f	10	0.07000000000000002	1	f	1	1.014809733722359
7	18	90	n/a	n/a	n/a	j	10	0.06000000000000002	1	j	1	0.8709033464547247
7	19	90	n/a	n/a	n/a	j	10	0.05000000000000002	0	j	1	0.8807557850959711
7	20	70	n/a	n/a	n/a	j	10	0.06000000000000002	0	j	1	0.9581734642561059
7	21	70	n/a	n/a	n/a	f	10	0.07000000000000002	1	f	1	0.8276085527322721
7	22	90	n/a	n/a	n/a	j	10	0.06000000000000002	0	j	1	0.9222114074800629
7	23	70	n/a	n/a	n/a	j	10	0.07000000000000002	1	j	1	1.036994684051024
7	24	90	n/a	n/a	n/a	j	10	0.06000000000000002	1	j	1	0.8741420669248328
7	25	90	n/a	n/a	n/a	f	10	0.05000000000000002	1	j	0	1.076321760046994
7	26	130	n/a	n/a	n/a	j	10	0.06000000000000002	2	j	1	0.8724403131636791
7	27	110	n/a	n/a	n/a	j	10	0.07000000000000002	0	j	1	0.952186392940348
7	28	70	n/a	n/a	n/a	j	10	0.08000000000000002	1	j	1	0.8991486384475138
7	29	90	n/a	n/a	n/a	f	10	0.07000000000000002	0	f	1	0.962252940662438
7	30	70	n/a	n/a	n/a	j	10	0.08000000000000002	1	j	1	0.8226914565602783
7	31	90	n/a	n/a	n/a	j	10	0.07000000000000002	0	j	1	0.9900323814945295
7	32	70	n/a	n/a	n/a	j	10	0.08000000000000002	1	j	1	0.8609092137776315
7	33	90	n/a	n/a	n/a	f	10	0.07000000000000002	0	f	1	0.7840571702690795
7	34	70	n/a	n/a	n/a	j	10	0.08000000000000002	0	j	1	1.000998130330117
7	35	70	n/a	n/a	n/a	j	10	0.09000000000000001	1	j	1	0.9258238922921009
7	36	90	n/a	n/a	n/a	j	10	0.08000000000000002	1	j	1	0.8567587478319183
7	37	90	n/a	n/a	n/a	f	10	0.07000000000000002	0	f	1	0.8597562749055214
7	38	70	n/a	n/a	n/a	j	10	0.08000000000000002	0	j	1	0.9987318812636659
7	39	70	n/a	n/a	n/a	j	10	0.09000000000000001	1	j	1	1.028129256883403
7	40	90	n/a	n/a	n/a	j	10	0.08000000000000002	1	j	1	0.9124048697121907
7	41	90	n/a	n/a	n/a	f	10	0.07000000000000002	0	f	1	0.8444171129667666
7	42	70	n/a	n/a	n/a	j	10	0.08000000000000002	0	j	1	0.8488529626629315
7	43	70	n/a	n/a	n/a	j	10	0.09000000000000001	0	j	1	1.027368898823624
7	44	70	n/a	n/a	n/a	j	10	0.1	1	j	1	0.7844611550390255
7	45	90	n/a	n/a	n/a	f	10	0.09000000000000001	0	f	1	0.7948817952710669
7	46	70	n/a	n/a	n/a	j	10	0.1	0	j	1	0.9524024976999499
7	47	70	n/a	n/a	n/a	j	10	0.11	1	j	1	0.8772282596619334
7	48	90	n/a	n/a	n/a	j	10	0.1	0	j	1	0.9721387358440552
7	49	70	n/a	n/a	n/a	f	10	0.11	1	f	1	0.974802697513951
7	50	90	n/a	n/a	n/a	j	10	0.1	1	j	1	0.8711046260723379
7	51	90	n/a	n/a	n/a	j	10	0.09000000000000001	0	j	1	0.9255701545043848
7	52	70	n/a	n/a	n/a	j	10	0.1	1	j	1	0.9389033624029253
7	53	90	n/a	n/a	n/a	f	10	0.09000000000000001	1	f	1	0.8499326311866753
7	54	90	n/a	n/a	n/a	j	10	0.08000000000000002	0	j	1	0.8868027271528263
7	55	70	n/a	n/a	n/a	j	10	0.09000000000000001	0	j	1	0.9477360032324214
7	56	70	n/a	n/a	n/a	j	10	0.1	1	j	1	0.9043804834946059
7	57	90	n/a	n/a	n/a	f	10	0.09000000000000001	1	f	1	0.804315994202625
7	58	90	n/a	n/a	n/a	j	10	0.08000000000000002	0	j	1	0.9656564481556416
7	59	70	n/a	n/a	n/a	j	10	0.09000000000000001	1	j	1	0.8647862701036502
7	60	90	n/a	n/a	n/a	j	10	0.08000000000000002	0	j	1	0.9244576996134128
7	61	70	n/a	n/a	n/a	f	10	0.09000000000000001	1	f	1	0.9224554519169033
7	62	90	n/a	n/a	n/a	j	10	0.08000000000000002	1	j	1	0.8103589449019637
7	63	90	n/a	n/a	n/a	j	10	0.07000000000000002	0	j	1	0.8558373090345412
7	64	70	n/a	n/a	n/a	j	10	0.08000000000000002	0	j	1	0.9342816284333821
7	65	70	n/a	n/a	n/a	f	10	0.09000000000000001	1	f	1	0.8659497576591093
7	66	90	n/a	n/a	n/a	j	10	0.08000000000000002	0	j	1	0.8878262312500738
7	67	70	n/a	n/a	n/a	j	10	0.09000000000000001	0	j	1	0.9111589886597358
7	68	70	n/a	n/a	n/a	j	10	0.1	1	j	1	0.9582324796938337
7	69	90	n/a	n/a	n/a	f	10	0.09000000000000001	1	f	1	0.9220680028665811
7	70	90	n/a	n/a	n/a	j	10	0.08000000000000002	1	j	1	0.8429873433487955
7	71	90	n/a	n/a	n/a	j	10	0.07000000000000002	0	j	1	0.8979555006662849
8	0	63	f	1	1.199022225715453	f	3	0.1	2	f	1	0.4749777480610646
8	1	103	n/a	n/a	n/a	f	3	0.11	1	f	1	0.3909204067313112
8	2	83	n/a	n/a	n/a	j	3	0.1	1	j	1	0.4456644765159581
8	3	83	n/a	n/a	n/a	f	3	0.09000000000000001	1	f	1	0.4264790489687584
8	4	83	n/a	n/a	n/a	f	3	0.08000000000000002	1	f	1	0.4157889905036427
8	5	83	n/a	n/a	n/a	f	3	0.07000000000000002	1	f	1	0.3865253261756152
8	6	83	n/a	n/a	n/a	f	3	0.06000000000000002	1	f	1	0.4305568147392478
8	7	83	n/a	n/a	n/a	f	3	0.05000000000000002	1	f	1	0.4456020399229601
8	8	83	n/a	n/a	n/a	j	3	0.04000000000000001	2	j	1	0.4215645186777692
8	9	103	n/a	n/a	n/a	f	3	0.05000000000000002	2	j	0	0.4375787941389717
8	10	123	n/a	n/a	n/a	f	3	0.04000000000000001	2	j	0	0.4605719990795478
8	11	123	n/a	n/a	n/a	f	3	0.05000000000000002	2	f	1	0.4179925178468693
8	12	103	n/a	n/a	n/a	f	3	0.06000000000000002	1	f	1	0.4543574190174695
8	13	83	n/a	n/a	n/a	f	3	0.05000000000000002	2	f	1	0.4184769004350528
8	14	103	n/a	n/a	n/a	j	3	0.06000000000000002	2	f	0	0.4069726002926473
8	15	123	n/a	n/a	n/a	f	3	0.05000000000000002	2	j	0	0.2123063966573682
8	16	123	n/a	n/a	n/a	f	3	0.04000000000000001	0	f	1	0.3935929213475902
8	17	63	n/a	n/a	n/a	f	3	0.05000000000000002	1	f	1	0.4542830082646105
8	18	83	n/a	n/a	n/a	f	3	0.04000000000000001	2	f	1	0.4662605721678119
8	19	103	n/a	n/a	n/a	f	3	0.05000000000000002	2	f	1	0.4324649799091276
8	20	103	n/a	n/a	n/a	j	3	0.06000000000000002	1	j	1	0.4388155520136934
8	21	83	n/a	n/a	n/a	f	3	0.05000000000000002	1	f	1	0.4872375595732592
8	22	83	n/a	n/a	n/a	f	3	0.04000000000000001	2	f	1	0.4117924778256565
8	23	103	n/a	n/a	n/a	f	3	0.05000000000000002	1	f	1	0.3852777345455252
8	24	83	n/a	n/a	n/a	f	3	0.04000000000000001	1	f	1	0.4167594662867486
8	25	83	n/a	n/a	n/a	f	3	0.03000000000000001	2	f	1	0.3957568199839443
8	26	103	n/a	n/a	n/a	j	3	0.04000000000000001	1	j	1	0.4092362834780943
8	27	83	n/a	n/a	n/a	f	3	0.03000000000000001	1	f	1	0.42208624916384
8	28	83	n/a	n/a	n/a	f	3	0.02000000000000001	2	f	1	0.3339776562352199
8	29	103	n/a	n/a	n/a	f	3	0.03000000000000001	0	f	1	0.5670035962248221
8	30	63	n/a	n/a	n/a	f	3	0.04000000000000001	2	f	1	0.4995070644654334
8	31	103	n/a	n/a	n/a	f	3	0.05000000000000002	2	f	1	0.4385854774445761
8	32	103	n/a	n/a	n/a	j	3	0.06000000000000002	1	j	1	0.4099168139218818
8	33	83	n/a	n/a	n/a	f	3	0.05000000000000002	1	j	0	0.4935351033636834
8	34	123	n/a	n/a	n/a	f	3	0.04000000000000001	1	j	0	0.4928636960685253
8	35	123	n/a	n/a	n/a	f	3	0.05000000000000002	2	f	1	0.06734485930064693
8	36	103	n/a	n/a	n/a	f	3	0.06000000000000002	0	f	1	0.28980532893911
8	37	63	n/a	n/a	n/a	f	3	0.07000000000000002	0	j	0	0.412817692529643
8	38	123	n/a	n/a	n/a	j	3	0.08000000000000002	0	f	0	0.5535797269840259
8	39	123	n/a	n/a	n/a	f	3	0.07000000000000002	2	f	1	0.4160045250901021
8	40	103	n/a	n/a	n/a	f	3	0.08000000000000002	1	f	1	0.4767216964100953
8	41	83	n/a	n/a	n/a	f	3	0.07000000000000002	2	f	1	0.4102882974548265
8	42	103	n/a	n/a	n/a	f	3	0.08000000000000002	2	j	0	0.470223158103181
8	43	123	n/a	n/a	n/a	f	3	0.07000000000000002	2	j	0	0.482865857105935
8	44	123	n/a	n/a	n/a	j	3	0.08000000000000002	2	f	0	0.08566672311280854
8	45	123	n/a	n/a	n/a	f	3	0.09000000000000001	0	f	1	0.3693669498607051
8	46	63	n/a	n/a	n/a	f	3	0.1	1	f	1	0.4525775482761674
8	47	83	n/a	n/a	n/a	f	3	0.09000000000000001	1	f	1	0.4665268542885315
8	48	83	n/a	n/a	n/a	f	3	0.08000000000000002	1	f	1	0.4625246396462899
8	49	83	n/a	n/a	n/a	f	3	0.07000000000000002	2	f	1	0.4041837654658593
8	50	103	n/a	n/a	n/a	j	3	0.08000000000000002	1	j	1	0.4584702519350685
8	51	83	n/a	n/a	n/a	f	3	0.07000000000000002	2	f	1	0.4334203454200178
8	52	103	n/a	n/a	n/a	f	3	0.08000000000000002	1	f	1	0.4153530746989418
8	53	83	n/a	n/a	n/a	f	3	0.07000000000000002	1	f	1	0.4684136370779015
8	54	83	n/a	n/a	n/a	f	3	0.06000000000000002	2	f	1	0.3867240399122238
8	55	103	n/a	n/a	n/a	f	3	0.07000000000000002	1	f	1	0.4739838942186907
8	56	83	n/a	n/a	n/a	j	3	0.06000000000000002	2	j	1	0.4044018659333233
8	57	103	n/a	n/a	n/a	f	3	0.07000000000000002	1	f	1	0.4193145202298183
8	58	83	n/a	n/a	n/a	f	3	0.06000000000000002	1	f	1	0.4783114063902758
8	59	83	n/a	n/a	n/a	f	3	0.05000000000000002	2	f	1	0.3510234185669105
8	60	103	n/a	n/a	n/a	f	3	0.06000000000000002	1	f	1	0.5233068134402856
8	61	83	n/a	n/a	n/a	f	3	0.05000000000000002	2	f	1	0.2651557009085082
8	62	103	n/a	n/a	n/a	j	3	0.06000000000000002	0	j	1	0.5433757617138326
8	63	63	n/a	n/a	n/a	f	3	0.07000000000000002	2	f	1	0.525985315151047
8	64	103	n/a	n/a	n/a	f	3	0.08000000000000002	2	f	1	0.5079958763381001
8	65	103	n/a	n/a	n/a	f	3	0.09000000000000001	2	f	1	0.4820809805532917
8	66	103	n/a	n/a	n/a	f	3	0.1	2	j	0	0.5032620985875838
8	67	123	n/a	n/a	n/a	f	3	0.11	2	f	1	0.4679118634667248
8	68	103	n/a	n/a	n/a	j	3	0.12	2	f	0	0.4410512955219019
8	69	123	n/a	n/a	n/a	f	3	0.11	1	f	1	0.5260229481500573
8	70	83	n/a	n/a	n/a	f	3	0.1	2	f	1	0.2750540404522326
8	71	103	n/a	n/a	n/a	f	3	0.11	0	f	1	0.7393183519598097
9	0	64	j	1	0.7257456612132955	j	4	0.1	2	j	1	0.4372820064600091
9	1	104	n/a	n/a	n/a	j	4	0.11	1	j	1	0.4082056519109756
9	2	84	n/a	n/a	n/a	f	4	0.1	1	f	1	0.4350220295891631
9	3	84	n/a	n/a	n/a	j	4	0.09000000000000001	1	j	1	0.4470075762073975
9	4	84	n/a	n/a	n/a	j	4	0.08000000000000002	1	j	1	0.4038100011239294
9	5	84	n/a	n/a	n/a	j	4	0.07000000000000002	1	j	1	0.373566167691024
9	6	84	n/a	n/a	n/a	j	4	0.06000000000000002	1	j	1	0.4410721077292692
9	7	84	n/a	n/a	n/a	j	4	0.05000000000000002	2	j	1	0.4246988930681255
9	8	104	n/a	n/a	n/a	f	4	0.06000000000000002	1	f	1	0.4119430099381134
9	9	84	n/a	n/a	n/a	j	4	0.05000000000000002	1	j	1	0.4435806905967183
9	10	84	n/a	n/a	n/a	j	4	0.04000000000000001	2	j	1	0.4099364857247565
9	11	104	n/a	n/a	n/a	j	4	0.05000000000000002	1	j	1	0.4469408631557599
9	12	84	n/a	n/a	n/a	j	4	0.04000000000000001	2	j	1	0.4518687930249143
9	13	104	n/a	n/a	n/a	j	4	0.05000000000000002	2	j	1	0.3953334485122468
9	14	104	n/a	n/a	n/a	f	4	0.06000000000000002	1	f	1	0.400705847190693
9	15	84	n/a	n/a	n/a	j	4	0.05000000000000002	1	j	1	0.4523999318189453
9	16	84	n/a	n/a	n/a	j	4	0.04000000000000001	2	j	1	0.4347357905353419
9	17	104	n/a	n/a	n/a	j	4	0.05000000000000002	2	j	1	0.4337493492639624
9	18	104	n/a	n/a	n/a	j	4	0.06000000000000002	1	j	1	0.4386521904962137
9	19	84	n/a	n/a	n/a	j	4	0.05000000000000002	2	j	1	0.4035266131104436
9	20	104	n/a	n/a	n/a	f	4	0.06000000000000002	1	f	1	0.4314608625136316
9	21	84	n/a	n/a	n/a	j	4	0.05000000000000002	1	j	1	0.4598219045728911
9	22	84	n/a	n/a	n/a	j	4	0.04000000000000001	2	j	1	0.4251499191159382
9	23	104	n/a	n/a	n/a	j	4	0.05000000000000002	1	j	1	0.3907824189809617
9	24	84	n/a	n/a	n/a	j	4	0.04000000000000001	1	j	1	0.4566775517305359
9	25	84	n/a	n/a	n/a	j	4	0.03000000000000001	2	j	1	0.3895328316721134
9	26	104	n/a	n/a	n/a	f	4	0.04000000000000001	1	f	1	0.4374698864412494
9	27	84	n/a	n/a	n/a	j	4	0.03000000000000001	2	j	1	0.4701296457496937
9	28	104	n/a	n/a	n/a	j	4	0.04000000000000001	2	j	1	0.3794514588371385
9	29	104	n/a	n/a	n/a	j	4	0.05000000000000002	1	j	1	0.4864190414082259
9	30	84	n/a	n/a	n/a	j	4	0.04000000000000001	2	j	1	0.3903641792712733
9	31	104	n/a	n/a	n/a	j	4	0.05000000000000002	1	j	1	0.4494163745839614
9	32	84	n/a	n/a	n/a	f	4	0.04000000000000001	2	f	1	0.4344797719677445
9	33	104	n/a	n/a	n/a	j	4	0.05000000000000002	2	j	1	0.481337728415383
9	34	104	n/a	n/a	n/a	j	4	0.06000000000000002	2	j	1	0.2645615553483367
9	35	104	n/a	n/a	n/a	j	4	0.07000000000000002	0	j	1	0.4888466562551912
9	36	64	n/a	n/a	n/a	j	4	0.08000000000000002	2	j	1	0.4593600447988138
9	37	104	n/a	n/a	n/a	j	4	0.09000000000000001	1	j	1	0.4657345651939977
9	38	84	n/a	n/a	n/a	f	4	0.08000000000000002	2	f	1	0.4561760632495862
9	39	104	n/a	n/a	n/a	j	4	0.09000000000000001	1	j	1	0.4744431881117634
9	40	84	n/a	n/a	n/a	j	4	0.08000000000000002	2	j	1	0.4242336121096741
9	41	104	n/a	n/a	n/a	j	4	0.09000000000000001	1	j	1	0.4889418792154174
9	42	84	n/a	n/a	n/a	j	4	0.08000000000000002	2	j	1	0.4620932854304556
9	43	104	n/a	n/a	n/a	j	4	0.09000000000000001	1	j	1	0.4441420498187654
9	44	84	n/a	n/a	n/a	f	4	0.08000000000000002	1	f	1	0.4396520314039662
9	45	84	n/a	n/a	n/a	j	4	0.07000000000000002	1	j	1	0.4299472738639452
9	46	84	n/a	n/a	n/a	j	4	0.06000000000000002	1	j	1	0.4599370844371151
9	47	84	n/a	n/a	n/a	j	4	0.05000000000000002	2	j	1	0.4640502024558373
9	48	104	n/a	n/a	n/a	j	4	0.06000000000000002	2	j	1	0.4858642394538037
9	49	104	n/a	n/a	n/a	j	4	0.07000000000000002	2	j	1	0.4427564704674296
9	50	104	n/a	n/a	n/a	f	4	0.08000000000000002	1	f	1	0.4558507656911388
9	51	84	n/a	n/a	n/a	j	4	0.07000000000000002	1	j	1	0.4368877150409389
9	52	84	n/a	n/a	n/a	j	4	0.06000000000000002	1	j	1	0.4479666480328888
9	53	84	n/a	n/a	n/a	j	4	0.05000000000000002	1	f	0	0.4825385638687294
9	54	124	n/a	n/a	n/a	j	4	0.06000000000000002	2	j	1	0.4106994096655399
9	55	104	n/a	n/a	n/a	j	4	0.07000000000000002	1	j	1	0.4648404958716128
9	56	84	n/a	n/a	n/a	f	4	0.06000000000000002	2	f	1	0.4365686896489933
9	57	104	n/a	n/a	n/a	j	4	0.07000000000000002	1	j	1	0.443390814907616
9	58	84	n/a	n/a	n/a	j	4	0.06000000000000002	2	j	1	0.4408460244885646
9	59	104	n/a	n/a	n/a	j	4	0.07000000000000002	1	j	1	0.4126058642577846
9	60	84	n/a	n/a	n/a	j	4	0.06000000000000002	1	j	1	0.4567277290916536
9	61	84	n/a	n/a	n/a	j	4	0.05000000000000002	2	j	1	0.4555497015244327
9	62	104	n/a	n/a	n/a	f	4	0.06000000000000002	2	f	1	0.3965462580963504
9	63	104	n/a	n/a	n/a	j	4	0.07000000000000002	1	j	1	0.4901997344277333
9	64	84	n/a	n/a	n/a	j	4	0.06000000000000002	2	j	1	0.4401922933175229
9	65	104	n/a	n/a	n/a	j	4	0.07000000000000002	1	j	1	0.4515757116314489
9	66	84	n/a	n/a	n/a	j	4	0.06000000000000002	1	f	0	0.4151905684848316
9	67	124	n/a	n/a	n/a	j	4	0.07000000000000002	1	j	1	0.4373666807368863
9	68	84	n/a	n/a	n/a	f	4	0.06000000000000002	1	f	1	0.4325074595981278
9	69	84	n/a	n/a	n/a	j	4	0.05000000000000002	1	j	1	0.4373866376408841
9	70	84	n/a	n/a	n/a	j	4	0.04000000000000001	2	j	1	0.4452881463512313
9	71	104	n/a	n/a	n/a	j	4	0.05000000000000002	2	j	1	0.4568945118226111
10	0	109	f	1	0.8759279247897211	f	9	0.1	0	f	1	0.8910846235521603
10	1	69	n/a	n/a	n/a	j	9	0.11	1	j	1	0.9641497018747032
10	2	89	n/a	n/a	n/a	f	9	0.1	1	f	1	0.8981952686153818
10	3	89	n/a	n/a	n/a	f	9	0.09000000000000001	1	f	1	0.9220754154084716
10	4	89	n/a	n/a	n/a	f	9	0.08000000000000002	1	f	1	0.9140316425182391
10	5	89	n/a	n/a	n/a	j	9	0.07000000000000002	0	j	1	0.8380126572446898
10	6	69	n/a	n/a	n/a	f	9	0.08000000000000002	0	f	1	1.065976385871181
10	7	69	n/a	n/a	n/a	f	9	0.09000000000000001	1	f	1	0.8715824513637926
10	8	89	n/a	n/a	n/a	f	9	0.08000000000000002	0	f	1	0.8848623458179645
10	9	69	n/a	n/a	n/a	j	9	0.09000000000000001	0	j	1	1.004873761179624
10	10	69	n/a	n/a	n/a	f	9	0.1	1	f	1	0.8346741522254888
10	11	89	n/a	n/a	n/a	f	9	0.09000000000000001	0	f	1	1.007873854105128
10	12	69	n/a	n/a	n/a	f	9	0.1	1	f	1	1.077797430596547
10	13	89	n/a	n/a	n/a	j	9	0.09000000000000001	2	j	1	0.8755943593860138
10	14	109	n/a	n/a	n/a	f	9	0.1	0	f	1	1.00569341974915
10	15	69	n/a	n/a	n/a	f	9	0.11	1	f	1	0.9460684613150079
10	16	89	n/a	n/a	n/a	f	9	0.1	1	f	1	0.9013444681477267
10	17	89	n/a	n/a	n/a	j	9	0.09000000000000001	1	j	1	0.8533002162585035
10	18	89	n/a	n/a	n/a	f	9	0.08000000000000002	0	f	1	0.9539411750156432
10	19	69	n/a	n/a	n/a	f	9	0.09000000000000001	1	f	1	0.8942241297045257
10	20	89	n/a	n/a	n/a	f	9	0.08000000000000002	0	f	1	0.7926543196081184
10	21	69	n/a	n/a	n/a	j	9	0.09000000000000001	0	j	1	0.9897455722675659
10	22	69	n/a	n/a	n/a	f	9	0.1	1	f	1	0.9510172034206335
10	23	89	n/a	n/a	n/a	f	9	0.09000000000000001	1	f	1	0.9201247705786955
10	24	89	n/a	n/a	n/a	f	9	0.08000000000000002	1	f	1	0.9649171873752493
10	25	89	n/a	n/a	n/a	j	9	0.07000000000000002	1	j	1	0.9298246814578306
10	26	89	n/a	n/a	n/a	f	9	0.06000000000000002	1	f	1	0.899148923548637
10	27	89	n/a	n/a	n/a	f	9	0.05000000000000002	0	f	1	0.9438039228552952
10	28	69	n/a	n/a	n/a	f	9	0.06000000000000002	1	f	1	0.8618269462604076
10	29	89	n/a	n/a	n/a	j	9	0.05000000000000002	0	j	1	0.876542882528156
10	30	69	n/a	n/a	n/a	f	9	0.06000000000000002	0	f	1	0.897191436321009
10	31	69	n/a	n/a	n/a	f	9	0.07000000000000002	0	f	1	0.8601003889343701
10	32	69	n/a	n/a	n/a	f	9	0.08000000000000002	0	f	1	0.8715810258872807
10	33	69	n/a	n/a	n/a	j	9	0.09000000000000001	0	j	1	0.9264824701531325
10	34	69	n/a	n/a	n/a	f	9	0.1	1	f	1	0.8434762874967419
10	35	89	n/a	n/a	n/a	f	9	0.09000000000000001	0	f	1	0.8429451487318147
10	36	69	n/a	n/a	n/a	f	9	0.1	0	f	1	0.898278517415747
10	37	69	n/a	n/a	n/a	j	9	0.11	1	j	1	0.996172835904872
10	38	89	n/a	n/a	n/a	f	9	0.1	1	f	1	0.7432281946530566
10	39	89	n/a	n/a	n/a	f	9	0.09000000000000001	0	f	1	0.9042806990037207
10	40	69	n/a	n/a	n/a	f	9	0.1	1	f	1	0.9760038180393167
10	41	89	n/a	n/a	n/a	j	9	0.09000000000000001	1	j	1	0.9091912378789857
10	42	89	n/a	n/a	n/a	f	9	0.08000000000000002	1	f	1	0.833166265510954
10	43	89	n/a	n/a	n/a	f	9	0.07000000000000002	0	f	1	0.9098079062532634
10	44	69	n/a	n/a	n/a	f	9	0.08000000000000002	1	f	1	0.8599033857753966
10	45	89	n/a	n/a	n/a	j	9	0.07000000000000002	0	j	1	0.8443980113952421
10	46	69	n/a	n/a	n/a	f	9	0.08000000000000002	0	f	1	0.8494003520172555
10	47	69	n/a	n/a	n/a	f	9	0.09000000000000001	0	f	1	0.9049501105910167
10	48	69	n/a	n/a	n/a	f	9	0.1	1	f	1	1.012726803106489
10	49	89	n/a	n/a	n/a	j	9	0.09000000000000001	1	f	0	0.8436057222716045
10	50	129	n/a	n/a	n/a	f	9	0.08000000000000002	0	f	1	0.8807466619182378
10	51	69	n/a	n/a	n/a	f	9	0.09000000000000001	0	f	1	0.8795173165854067
10	52	69	n/a	n/a	n/a	f	9	0.1	0	f	1	0.9231083277845755
10	53	69	n/a	n/a	n/a	j	9	0.11	1	j	1	0.8554321838892065
10	54	89	n/a	n/a	n/a	f	9	0.1	0	f	1	0.8705093401076738
10	55	69	n/a	n/a	n/a	f	9	0.11	0	f	1	0.8523286001291126
10	56	69	n/a	n/a	n/a	f	9	0.12	0	f	1	0.9600551152834669
10	57	69	n/a	n/a	n/a	j	9	0.13	1	j	1	1.049244517111219
10	58	89	n/a	n/a	n/a	f	9	0.12	1	f	1	0.9364056132617407
10	59	89	n/a	n/a	n/a	f	9	0.11	1	f	1	1.013866627443349
10	60	89	n/a	n/a	n/a	f	9	0.1	1	f	1	0.9560785595094785
10	61	89	n/a	n/a	n/a	j	9	0.09000000000000002	1	j	1	0.8172004568332341
10	62	89	n/a	n/a	n/a	f	9	0.08000000000000003	0	f	1	0.9910766978282481
10	63	69	n/a	n/a	n/a	f	9	0.09000000000000002	1	f	1	0.7452600926335435
10	64	89	n/a	n/a	n/a	f	9	0.08000000000000003	0	f	1	0.9429115641105454
10	65	69	n/a	n/a	n/a	j	9	0.09000000000000002	1	j	1	0.8528862530656625
10	66	89	n/a	n/a	n/a	f	9	0.08000000000000003	0	f	1	0.8277186008053832
10	67	69	n/a	n/a	n/a	f	9	0.09000000000000002	0	f	1	0.8545851558155846
10	68	69	n/a	n/a	n/a	f	9	0.1	0	f	1	0.9802492218150292
10	69	69	n/a	n/a	n/a	j	9	0.11	1	j	1	1.10331660945667
10	70	89	n/a	n/a	n/a	f	9	0.1	2	f	1	0.891787391708931
10	71	109	n/a	n/a	n/a	f	9	0.11	1	f	1	0.8386059475014918
11	0	81	f	1	1.127333888696739	f	1	0.1	2	f	1	0.5347161757526919
11	1	101	n/a	n/a	n/a	j	1	0.11	2	j	1	0.4443632863694802
11	2	101	n/a	n/a	n/a	f	1	0.12	1	f	1	0.4846870671608485
11	3	81	n/a	n/a	n/a	f	1	0.11	1	f	1	0.4014046239608433
11	4	81	n/a	n/a	n/a	f	1	0.1	1	f	1	0.431451169133652
11	5	81	n/a	n/a	n/a	j	1	0.09000000000000001	1	j	1	0.3985946917964611
11	6	81	n/a	n/a	n/a	f	1	0.08000000000000002	1	f	1	0.4374983963207342
11	7	81	n/a	n/a	n/a	f	1	0.07000000000000002	1	f	1	0.4006918773520738
11	8	81	n/a	n/a	n/a	f	1	0.06000000000000002	1	f	1	0.3835982184682507
11	9	81	n/a	n/a	n/a	j	1	0.05000000000000002	1	j	1	0.4034450748877134
11	10	81	n/a	n/a	n/a	f	1	0.04000000000000001	1	f	1	0.3921486116596498
11	11	81	n/a	n/a	n/a	f	1	0.03000000000000001	1	f	1	0.427396211278392
11	12	81	n/a	n/a	n/a	f	1	0.02000000000000001	2	f	1	0.4174930250737816
11	13	101	n/a	n/a	n/a	j	1	0.03000000000000001	2	j	1	0.4173784154118039
11	14	101	n/a	n/a	n/a	f	1	0.04000000000000001	1	f	1	0.4333342456375249
11	15	81	n/a	n/a	n/a	f	1	0.03000000000000001	2	f	1	0.4023545726086013
11	16	101	n/a	n/a	n/a	f	1	0.04000000000000001	1	f	1	0.4132866798026953
11	17	81	n/a	n/a	n/a	j	1	0.03000000000000001	2	j	1	0.384068631217815
11	18	101	n/a	n/a	n/a	f	1	0.04000000000000001	1	f	1	0.4083444949646946
11	19	81	n/a	n/a	n/a	f	1	0.03000000000000001	1	f	1	0.3612028653442394
11	20	81	n/a	n/a	n/a	f	1	0.02000000000000001	1	j	0	0.445123644429259
11	21	121	n/a	n/a	n/a	j	1	0.03000000000000001	2	j	1	0.4661790339741856
11	22	101	n/a	n/a	n/a	f	1	0.04000000000000001	2	j	0	0.4811914728197735
11	23	121	n/a	n/a	n/a	f	1	0.05000000000000002	2	f	1	0.3640715278452262
11	24	101	n/a	n/a	n/a	f	1	0.06000000000000002	1	f	1	0.4581643411074765
11	25	81	n/a	n/a	n/a	j	1	0.05000000000000002	2	j	1	0.4563206082384568
11	26	101	n/a	n/a	n/a	f	1	0.06000000000000002	2	f	1	0.4140917983313557
11	27	101	n/a	n/a	n/a	f	1	0.07000000000000002	1	f	1	0.3961379968677647
11	28	81	n/a	n/a	n/a	f	1	0.06000000000000002	1	f	1	0.4176258810330182
11	29	81	n/a	n/a	n/a	j	1	0.05000000000000002	1	j	1	0.4050265170226339
11	30	81	n/a	n/a	n/a	f	1	0.04000000000000001	1	f	1	0.3819643181923311
11	31	81	n/a	n/a	n/a	f	1	0.03000000000000001	1	f	1	0.3986924806376919
11	32	81	n/a	n/a	n/a	f	1	0.02000000000000001	1	f	1	0.4428648079338018
11	33	81	n/a	n/a	n/a	j	1	0.01000000000000001	2	j	1	0.4117480024578981
11	34	101	n/a	n/a	n/a	f	1	0.02000000000000001	2	f	1	0.408978839404881
11	35	101	n/a	n/a	n/a	f	1	0.03000000000000001	1	f	1	0.4448009127518162
11	36	81	n/a	n/a	n/a	f	1	0.02000000000000001	2	f	1	0.3477827023598365
11	37	101	n/a	n/a	n/a	j	1	0.03000000000000001	0	j	1	0.5018961910100188
11	38	61	n/a	n/a	n/a	f	1	0.04000000000000001	2	f	1	0.4654882399481721
11	39	101	n/a	n/a	n/a	f	1	0.05000000000000002	2	f	1	0.4507879841257818
11	40	101	n/a	n/a	n/a	f	1	0.06000000000000002	2	f	1	0.4724027371848933
11	41	101	n/a	n/a	n/a	j	1	0.07000000000000002	2	j	1	0.4297280330210924
11	42	101	n/a	n/a	n/a	f	1	0.08000000000000002	1	f	1	0.4436576672305819
11	43	81	n/a	n/a	n/a	f	1	0.07000000000000002	1	f	1	0.4256371526862495
11	44	81	n/a	n/a	n/a	f	1	0.06000000000000002	1	f	1	0.4878131737350486
11	45	81	n/a	n/a	n/a	j	1	0.05000000000000002	2	j	1	0.3927319234644528
11	46	101	n/a	n/a	n/a	f	1	0.06000000000000002	2	j	0	0.4151261361839715
11	47	121	n/a	n/a	n/a	f	1	0.05000000000000002	1	f	1	0.4105927827768028
11	48	81	n/a	n/a	n/a	f	1	0.04000000000000001	1	f	1	0.4662163819011766
11	49	81	n/a	n/a	n/a	j	1	0.03000000000000001	2	j	1	0.4144515928055625
11	50	101	n/a	n/a	n/a	f	1	0.04000000000000001	1	f	1	0.4440320017747581
11	51	81	n/a	n/a	n/a	f	1	0.03000000000000001	2	f	1	0.4805300440057181
11	52	101	n/a	n/a	n/a	f	1	0.04000000000000001	2	f	1	0.4463820698147174
11	53	101	n/a	n/a	n/a	j	1	0.05000000000000002	2	j	1	0.4033438648621086
11	54	101	n/a	n/a	n/a	f	1	0.06000000000000002	1	f	1	0.4498919191246387
11	55	81	n/a	n/a	n/a	f	1	0.05000000000000002	2	f	1	0.413313193974318
11	56	101	n/a	n/a	n/a	f	1	0.06000000000000002	1	f	1	0.4532378366857301
11	57	81	n/a	n/a	n/a	j	1	0.05000000000000002	2	j	1	0.4142899418948218
11	58	101	n/a	n/a	n/a	f	1	0.06000000000000002	1	f	1	0.4812701600312721
11	59	81	n/a	n/a	n/a	f	1	0.05000000000000002	2	f	1	0.3989382356812712
11	60	101	n/a	n/a	n/a	f	1	0.06000000000000002	1	f	1	0.455176507413853
11	61	81	n/a	n/a	n/a	j	1	0.05000000000000002	2	j	1	0.4139481086167507
11	62	101	n/a	n/a	n/a	f	1	0.06000000000000002	1	f	1	0.4190716162265744
11	63	81	n/a	n/a	n/a	f	1	0.05000000000000002	1	f	1	0.4071790117304772
11	64	81	n/a	n/a	n/a	f	1	0.04000000000000001	1	f	1	0.4531899401044939
11	65	81	n/a	n/a	n/a	j	1	0.03000000000000001	2	j	1	0.3882647129357792
11	66	101	n/a	n/a	n/a	f	1	0.04000000000000001	2	j	0	0.4411924193263985
11	67	121	n/a	n/a	n/a	f	1	0.03000000000000001	2	f	1	0.4130346525926143
11	68	101	n/a	n/a	n/a	f	1	0.04000000000000001	1	f	1	0.4349852518353146
11	69	81	n/a	n/a	n/a	j	1	0.03000000000000001	2	j	1	0.393568973056972
11	70	101	n/a	n/a	n/a	f	1	0.04000000000000001	1	f	1	0.4581238570972346
11	71	81	n/a	n/a	n/a	f	1	0.03000000000000001	2	f	1	0.3268276675662491
12	0	108	j	1	1.028362467564875	j	8	0.08000000000000003	0	j	1	0.6482230657420587
12	1	68	n/a	n/a	n/a	j	8	0.09000000000000002	1	j	1	0.6776389727601781
12	2	88	n/a	n/a	n/a	f	8	0.08000000000000003	2	f	1	0.7466126005747356
12	3	108	n/a	n/a	n/a	j	8	0.09000000000000002	2	j	1	0.5976006669225171
12	4	108	n/a	n/a	n/a	j	8	0.1	1	j	1	0.6236561163095757
12	5	88	n/a	n/a	n/a	j	8	0.09000000000000002	1	j	1	0.6098499297804665
12	6	88	n/a	n/a	n/a	j	8	0.08000000000000003	1	j	1	0.618367251532618
12	7	88	n/a	n/a	n/a	j	8	0.07000000000000003	1	j	1	0.6234308884013444
12	8	88	n/a	n/a	n/a	f	8	0.06000000000000003	1	f	1	0.5563825316785369
12	9	88	n/a	n/a	n/a	j	8	0.05000000000000003	1	j	1	0.6184165735903662
12	10	88	n/a	n/a	n/a	j	8	0.04000000000000003	1	j	1	0.6218346211244352
12	11	88	n/a	n/a	n/a	j	8	0.03000000000000003	2	j	1	0.5861590884742327
12	12	108	n/a	n/a	n/a	j	8	0.04000000000000003	1	j	1	0.5852117057074793
12	13	88	n/a	n/a	n/a	j	8	0.03000000000000003	1	j	1	0.5923816512804478
12	14	88	n/a	n/a	n/a	f	8	0.02000000000000002	1	f	1	0.5171635080769192
12	15	88	n/a	n/a	n/a	j	8	0.01000000000000002	0	j	1	0.6003843699872959
12	16	68	n/a	n/a	n/a	j	8	0.02000000000000002	1	j	1	0.5443006216664799
12	17	88	n/a	n/a	n/a	j	8	0.01000000000000002	0	j	1	0.6210523104819003
12	18	68	n/a	n/a	n/a	j	8	0.02000000000000002	2	j	1	0.5960731084051076
12	19	108	n/a	n/a	n/a	j	8	0.03000000000000003	1	j	1	0.5949307181872427
12	20	88	n/a	n/a	n/a	f	8	0.02000000000000002	1	j	0	0.5429344290168956
12	21	128	n/a	n/a	n/a	j	8	0.01000000000000002	0	j	1	0.5899919545336161
12	22	68	n/a	n/a	n/a	j	8	0.02000000000000002	1	j	1	0.6369898944103625
12	23	88	n/a	n/a	n/a	j	8	0.01000000000000002	2	j	1	0.5313426036154851
12	24	108	n/a	n/a	n/a	j	8	0.02000000000000002	0	j	1	0.6133235715678893
12	25	68	n/a	n/a	n/a	j	8	0.03000000000000003	2	j	1	0.5844473562610801
12	26	108	n/a	n/a	n/a	f	8	0.04000000000000003	1	f	1	1.038499719754327
12	27	88	n/a	n/a	n/a	j	8	0.03000000000000003	2	j	1	0.5119088551145978
12	28	108	n/a	n/a	n/a	j	8	0.04000000000000003	0	j	1	0.5742667690792587
12	29	68	n/a	n/a	n/a	j	8	0.05000000000000003	1	j	1	0.548650656681275
12	30	88	n/a	n/a	n/a	j	8	0.04000000000000003	1	j	1	0.624719819315942
12	31	88	n/a	n/a	n/a	j	8	0.03000000000000003	2	j	1	0.5735725538688712
12	32	108	n/a	n/a	n/a	f	8	0.04000000000000003	1	f	1	0.5305260811001062
12	33	88	n/a	n/a	n/a	j	8	0.03000000000000003	0	j	1	0.6034403422672767
12	34	68	n/a	n/a	n/a	j	8	0.04000000000000003	1	j	1	0.5416041587886866
12	35	88	n/a	n/a	n/a	j	8	0.03000000000000003	0	j	1	0.5660978378436994
12	36	68	n/a	n/a	n/a	j	8	0.04000000000000003	1	j	1	0.6049621987622231
12	37	88	n/a	n/a	n/a	j	8	0.03000000000000003	1	j	1	0.552506615727907
12	38	88	n/a	n/a	n/a	f	8	0.02000000000000002	0	f	1	0.5274042510718573
12	39	68	n/a	n/a	n/a	j	8	0.03000000000000003	0	j	1	0.6292620107706171
12	40	68	n/a	n/a	n/a	j	8	0.04000000000000003	2	j	1	0.5622672525933012
12	41	108	n/a	n/a	n/a	j	8	0.05000000000000003	1	j	1	0.589183699892601
12	42	88	n/a	n/a	n/a	j	8	0.04000000000000003	1	j	1	0.5711928356031422
12	43	88	n/a	n/a	n/a	j	8	0.03000000000000003	1	j	1	0.5602972210326698
12	44	88	n/a	n/a	n/a	f	8	0.02000000000000002	0	f	1	0.5260856698732823
12	45	68	n/a	n/a	n/a	j	8	0.03000000000000003	0	f	0	0.578767051018076
12	46	128	n/a	n/a	n/a	j	8	0.04000000000000003	1	j	1	0.3940430920920335
12	47	88	n/a	n/a	n/a	j	8	0.03000000000000003	0	j	1	0.6222061046573799
12	48	68	n/a	n/a	n/a	j	8	0.04000000000000003	1	j	1	0.606988679850474
12	49	88	n/a	n/a	n/a	j	8	0.03000000000000003	1	j	1	0.5699637753423303
12	50	88	n/a	n/a	n/a	f	8	0.02000000000000002	1	f	1	0.609124068665551
12	51	88	n/a	n/a	n/a	j	8	0.01000000000000002	2	j	1	0.5319082392961718
12	52	108	n/a	n/a	n/a	j	8	0.02000000000000002	0	j	1	0.5770288046624046
12	53	68	n/a	n/a	n/a	j	8	0.03000000000000003	1	j	1	0.5978016614390071
12	54	88	n/a	n/a	n/a	j	8	0.02000000000000002	1	j	1	0.546855105436407
12	55	88	n/a	n/a	n/a	j	8	0.01000000000000002	0	j	1	0.6399426609568764
12	56	68	n/a	n/a	n/a	f	8	0.02000000000000002	2	f	1	0.593034242046997
12	57	108	n/a	n/a	n/a	j	8	0.03000000000000003	1	j	1	0.5828639184182975
12	58	88	n/a	n/a	n/a	j	8	0.02000000000000002	1	j	1	0.603383322537411
12	59	88	n/a	n/a	n/a	j	8	0.01000000000000002	2	j	1	0.5607308560574893
12	60	108	n/a	n/a	n/a	j	8	0.02000000000000002	0	j	1	0.5390365604835097
12	61	68	n/a	n/a	n/a	j	8	0.03000000000000003	0	j	1	0.5205037236737553
12	62	68	n/a	n/a	n/a	f	8	0.04000000000000003	0	f	1	0.502218067413196
12	63	68	n/a	n/a	n/a	j	8	0.05000000000000003	0	j	1	0.7064390667364933
12	64	68	n/a	n/a	n/a	j	8	0.06000000000000003	2	j	1	0.5391719823237509
12	65	108	n/a	n/a	n/a	j	8	0.07000000000000003	1	j	1	0.5054824467515573
12	66	88	n/a	n/a	n/a	j	8	0.06000000000000003	0	j	1	0.6475932828616351
12	67	68	n/a	n/a	n/a	j	8	0.07000000000000003	1	j	1	0.4954834674135782
12	68	88	n/a	n/a	n/a	f	8	0.06000000000000003	0	f	1	0.5424186855962034
12	69	68	n/a	n/a	n/a	j	8	0.07000000000000003	1	j	1	0.5800226254214067
12	70	88	n/a	n/a	n/a	j	8	0.06000000000000003	1	j	1	0.4909415610309225
12	71	88	n/a	n/a	n/a	j	8	0.05000000000000003	0	j	1	0.5512955166923348
13	0	71	f	1	5.75223930721404	f	11	0.2600000000000001	0	f	1	0.8192129681119695
13	1	71	n/a	n/a	n/a	f	11	0.2700000000000001	1	f	1	0.9383548326150049
13	2	91	n/a	n/a	n/a	j	11	0.2600000000000001	1	j	1	0.8553298334591091
13	3	91	n/a	n/a	n/a	f	11	0.2500000000000001	1	f	1	0.8458662693446968
13	4	91	n/a	n/a	n/a	f	11	0.2400000000000001	1	f	1	0.8851283428375609
13	5	91	n/a	n/a	n/a	f	11	0.2300000000000001	1	f	1	0.9169131344242487
13	6	91	n/a	n/a	n/a	f	11	0.2200000000000001	1	f	1	0.871813381294487
13	7	91	n/a	n/a	n/a	f	11	0.2100000000000001	1	f	1	0.8366604344046209
13	8	91	n/a	n/a	n/a	j	11	0.2000000000000001	1	j	1	0.8640797956904862
13	9	91	n/a	n/a	n/a	f	11	0.1900000000000001	1	f	1	0.8288689737964887
13	10	91	n/a	n/a	n/a	f	11	0.18	1	f	1	0.9087578879552893
13	11	91	n/a	n/a	n/a	f	11	0.17	1	f	1	0.9130637326743454
13	12	91	n/a	n/a	n/a	f	11	0.16	1	f	1	0.9258849033794831
13	13	91	n/a	n/a	n/a	f	11	0.15	1	f	1	0.8088658833294176
13	14	91	n/a	n/a	n/a	j	11	0.14	0	j	1	0.7608618303493131
13	15	71	n/a	n/a	n/a	f	11	0.15	0	f	1	0.9316250793344807
13	16	71	n/a	n/a	n/a	f	11	0.16	1	f	1	0.881602528039366
13	17	91	n/a	n/a	n/a	f	11	0.15	1	f	1	0.9501006113132462
13	18	91	n/a	n/a	n/a	f	11	0.14	1	f	1	0.8696010158746503
13	19	91	n/a	n/a	n/a	f	11	0.13	1	f	1	0.8933685487136245
13	20	91	n/a	n/a	n/a	j	11	0.12	1	j	1	0.9214134163921699
13	21	91	n/a	n/a	n/a	f	11	0.11	1	f	1	0.8543910036678426
13	22	91	n/a	n/a	n/a	f	11	0.1	0	f	1	0.8880340681644157
13	23	71	n/a	n/a	n/a	f	11	0.11	1	f	1	0.9181638621666934
13	24	91	n/a	n/a	n/a	f	11	0.1	1	f	1	0.8851588484249078
13	25	91	n/a	n/a	n/a	f	11	0.09000000000000002	0	f	1	0.8648364474647678
13	26	71	n/a	n/a	n/a	j	11	0.1	0	f	0	0.908103301509982
13	27	131	n/a	n/a	n/a	f	11	0.11	1	f	1	0.8729817154817283
13	28	91	n/a	n/a	n/a	f	11	0.1	0	f	1	0.925825602869736
13	29	71	n/a	n/a	n/a	f	11	0.11	1	f	1	0.8469111558515579
13	30	91	n/a	n/a	n/a	f	11	0.1	0	f	1	0.9618763253383804
13	31	71	n/a	n/a	n/a	f	11	0.11	1	f	1	0.8480079302971717
13	32	91	n/a	n/a	n/a	j	11	0.1	0	j	1	0.8527927407121751
13	33	71	n/a	n/a	n/a	f	11	0.11	0	f	1	0.8427809319109656
13	34	71	n/a	n/a	n/a	f	11	0.12	0	f	1	0.930711053108098
13	35	71	n/a	n/a	n/a	f	11	0.13	1	f	1	0.815093862998765
13	36	91	n/a	n/a	n/a	f	11	0.12	0	f	1	0.8766027532401495
13	37	71	n/a	n/a	n/a	f	11	0.13	1	f	1	0.8444795495888684
13	38	91	n/a	n/a	n/a	j	11	0.12	0	j	1	0.8655509046511725
13	39	71	n/a	n/a	n/a	f	11	0.13	1	f	1	0.870185182953719
13	40	91	n/a	n/a	n/a	f	11	0.12	1	f	1	0.9034236925072037
13	41	91	n/a	n/a	n/a	f	11	0.11	1	f	1	0.9471655208617449
13	42	91	n/a	n/a	n/a	f	11	0.1	1	f	1	0.920384210330667
13	43	91	n/a	n/a	n/a	f	11	0.09000000000000002	1	f	1	0.8723271290073171
13	44	91	n/a	n/a	n/a	j	11	0.08000000000000003	0	j	1	0.8051165511715226
13	45	71	n/a	n/a	n/a	f	11	0.09000000000000002	0	f	1	0.9136704225675203
13	46	71	n/a	n/a	n/a	f	11	0.1	1	f	1	0.7740516336634755
13	47	91	n/a	n/a	n/a	f	11	0.09000000000000002	0	f	1	0.9220047109702136
13	48	71	n/a	n/a	n/a	f	11	0.1	1	f	1	0.9019594259152655
13	49	91	n/a	n/a	n/a	f	11	0.09000000000000002	1	f	1	0.8416758895909879
13	50	91	n/a	n/a	n/a	j	11	0.08000000000000003	0	j	1	0.8515907648543362
13	51	71	n/a	n/a	n/a	f	11	0.09000000000000002	0	f	1	0.8737204060307704
13	52	71	n/a	n/a	n/a	f	11	0.1	0	f	1	0.9666805224551354
13	53	71	n/a	n/a	n/a	f	11	0.11	1	f	1	0.9306240980222356
13	54	91	n/a	n/a	n/a	f	11	0.1	1	f	1	1.005146600567969
13	55	91	n/a	n/a	n/a	f	11	0.09000000000000002	1	f	1	0.8677684018330183
13	56	91	n/a	n/a	n/a	j	11	0.08000000000000003	0	j	1	0.9195383226906415
13	57	71	n/a	n/a	n/a	f	11	0.09000000000000002	1	f	1	0.9654657171922736
13	58	91	n/a	n/a	n/a	f	11	0.08000000000000003	1	f	1	0.8584086136543192
13	59	91	n/a	n/a	n/a	f	11	0.07000000000000003	0	f	1	0.8853461582330056
13	60	71	n/a	n/a	n/a	f	11	0.08000000000000003	0	f	1	0.9093831092759501
13	61	71	n/a	n/a	n/a	f	11	0.09000000000000002	1	f	1	0.9533125325397123
13	62	91	n/a	n/a	n/a	j	11	0.08000000000000003	1	j	1	0.9142126801598351
13	63	91	n/a	n/a	n/a	f	11	0.07000000000000003	0	f	1	0.8531904532865155
13	64	71	n/a	n/a	n/a	f	11	0.08000000000000003	0	f	1	0.9177290867373813
13	65	71	n/a	n/a	n/a	f	11	0.09000000000000002	1	f	1	0.8641969712334685
13	66	91	n/a	n/a	n/a	f	11	0.08000000000000003	0	f	1	0.8200745361682493
13	67	71	n/a	n/a	n/a	f	11	0.09000000000000002	0	f	1	1.003877911629388
13	68	71	n/a	n/a	n/a	j	11	0.1	1	j	1	0.9558359405491501
13	69	91	n/a	n/a	n/a	f	11	0.09000000000000002	1	f	1	0.8228337207983714
13	70	91	n/a	n/a	n/a	f	11	0.08000000000000003	0	f	1	0.969879899348598
13	71	71	n/a	n/a	n/a	f	11	0.09000000000000002	1	f	1	0.7568886957596987
14	0	87	f	1	1.033170085866004	f	7	1.040834085586084e-17	2	f	1	0.5996054805000313
14	1	107	n/a	n/a	n/a	f	7	0.01000000000000001	2	f	1	0.5513944459089544
14	2	107	n/a	n/a	n/a	j	7	0.02000000000000001	0	j	1	0.6052045326214284
14	3	67	n/a	n/a	n/a	f	7	0.03000000000000001	1	f	1	0.691420640796423
14	4	87	n/a	n/a	n/a	f	7	0.02000000000000001	2	f	1	0.5379181185271591
14	5	107	n/a	n/a	n/a	f	7	0.03000000000000001	0	f	1	0.5045641440374311
14	6	67	n/a	n/a	n/a	f	7	0.04000000000000001	0	f	1	0.6153999449161347
14	7	67	n/a	n/a	n/a	f	7	0.05000000000000002	1	f	1	0.5412899801158346
14	8	87	n/a	n/a	n/a	j	7	0.04000000000000001	0	j	1	0.5284608265792485
14	9	67	n/a	n/a	n/a	f	7	0.05000000000000002	0	f	1	0.5812819061102346
14	10	67	n/a	n/a	n/a	f	7	0.06000000000000002	1	f	1	0.6106299596431199
14	11	87	n/a	n/a	n/a	f	7	0.05000000000000002	1	f	1	0.6529462948383298
14	12	87	n/a	n/a	n/a	f	7	0.04000000000000001	2	f	1	0.6021072210278362
14	13	107	n/a	n/a	n/a	f	7	0.05000000000000002	1	f	1	0.6338244442304131
14	14	87	n/a	n/a	n/a	j	7	0.04000000000000001	2	j	1	0.5909048403555062
14	15	107	n/a	n/a	n/a	f	7	0.05000000000000002	1	f	1	0.5611570785404183
14	16	87	n/a	n/a	n/a	f	7	0.04000000000000001	1	f	1	0.5604246601287741
14	17	87	n/a	n/a	n/a	f	7	0.03000000000000001	1	f	1	0.5836379612155724
14	18	87	n/a	n/a	n/a	f	7	0.02000000000000001	1	f	1	0.5798698125581723
14	19	87	n/a	n/a	n/a	f	7	0.01000000000000001	1	f	1	0.5618817992217373
14	20	87	n/a	n/a	n/a	j	7	1.040834085586084e-17	0	j	1	0.520029889739817
14	21	67	n/a	n/a	n/a	f	7	0.01000000000000001	0	f	1	0.6309669006150216
14	22	67	n/a	n/a	n/a	f	7	0.02000000000000001	2	f	1	0.4760129411879461
14	23	107	n/a	n/a	n/a	f	7	0.03000000000000001	0	f	1	0.6707783591700718
14	24	67	n/a	n/a	n/a	f	7	0.04000000000000001	2	f	1	0.6037191687209997
14	25	107	n/a	n/a	n/a	f	7	0.05000000000000002	1	f	1	0.5688057047082111
14	26	87	n/a	n/a	n/a	j	7	0.04000000000000001	1	f	0	0.548620151123032
14	27	127	n/a	n/a	n/a	f	7	0.03000000000000001	0	f	1	0.6088523696525954
14	28	67	n/a	n/a	n/a	f	7	0.04000000000000001	1	f	1	0.5646897357073613
14	29	87	n/a	n/a	n/a	f	7	0.03000000000000001	1	f	1	0.5831575700431131
14	30	87	n/a	n/a	n/a	f	7	0.02000000000000001	1	f	1	0.5706197873514611
14	31	87	n/a	n/a	n/a	f	7	0.01000000000000001	0	f	1	0.5755750867247116
14	32	67	n/a	n/a	n/a	j	7	0.02000000000000001	1	j	1	0.6185055243549868
14	33	87	n/a	n/a	n/a	f	7	0.01000000000000001	2	f	1	0.5664017529925331
14	34	107	n/a	n/a	n/a	f	7	0.02000000000000001	1	f	1	0.5313896448933519
14	35	87	n/a	n/a	n/a	f	7	0.01000000000000001	0	f	1	0.6204014302929863
14	36	67	n/a	n/a	n/a	f	7	0.02000000000000001	2	f	1	0.6353619811998215
14	37	107	n/a	n/a	n/a	f	7	0.03000000000000001	2	f	1	0.6249695657170378
14	38	107	n/a	n/a	n/a	j	7	0.04000000000000001	1	j	1	0.6119761954178102
14	39	87	n/a	n/a	n/a	f	7	0.03000000000000001	1	f	1	0.5303171038103756
14	40	87	n/a	n/a	n/a	f	7	0.02000000000000001	0	f	1	0.6277521284064278
14	41	67	n/a	n/a	n/a	f	7	0.03000000000000001	2	f	1	0.5443125958554447
14	42	107	n/a	n/a	n/a	f	7	0.04000000000000001	0	f	1	0.6198913888365496
14	43	67	n/a	n/a	n/a	f	7	0.05000000000000002	1	f	1	0.5341422721976414
14	44	87	n/a	n/a	n/a	j	7	0.04000000000000001	0	j	1	0.5559332162083592
14	45	67	n/a	n/a	n/a	f	7	0.05000000000000002	1	f	1	0.5955873003404122
14	46	87	n/a	n/a	n/a	f	7	0.04000000000000001	1	f	1	0.5692005663004238
14	47	87	n/a	n/a	n/a	f	7	0.03000000000000001	1	f	1	0.5419100696162786
14	48	87	n/a	n/a	n/a	f	7	0.02000000000000001	0	f	1	0.531097133673029
14	49	67	n/a	n/a	n/a	f	7	0.03000000000000001	0	f	1	0.6094744548609015
14	50	67	n/a	n/a	n/a	j	7	0.04000000000000001	1	j	1	0.5051351966394577
14	51	87	n/a	n/a	n/a	f	7	0.03000000000000001	0	f	1	0.5197715903923381
14	52	67	n/a	n/a	n/a	f	7	0.04000000000000001	0	f	1	0.5485676929820329
14	53	67	n/a	n/a	n/a	f	7	0.05000000000000002	1	f	1	0.5388338553602807
14	54	87	n/a	n/a	n/a	f	7	0.04000000000000001	0	f	1	0.5503812053939328
14	55	67	n/a	n/a	n/a	f	7	0.05000000000000002	1	f	1	0.5575494403892662
14	56	87	n/a	n/a	n/a	j	7	0.04000000000000001	1	f	0	0.5622053862025496
14	57	127	n/a	n/a	n/a	f	7	0.03000000000000001	1	j	0	0.08657276656595059
14	58	127	n/a	n/a	n/a	f	7	0.02000000000000001	0	f	1	0.5173989995382726
14	59	67	n/a	n/a	n/a	f	7	0.03000000000000001	0	f	1	0.5277224211022258
14	60	67	n/a	n/a	n/a	f	7	0.04000000000000001	0	f	1	0.5895226821594406
14	61	67	n/a	n/a	n/a	f	7	0.05000000000000002	1	f	1	0.5795314004644752
14	62	87	n/a	n/a	n/a	j	7	0.04000000000000001	1	j	1	0.6444985371490475
14	63	87	n/a	n/a	n/a	f	7	0.03000000000000001	2	f	1	0.5455194183450658
14	64	107	n/a	n/a	n/a	f	7	0.04000000000000001	1	f	1	0.5617577813391108
14	65	87	n/a	n/a	n/a	f	7	0.03000000000000001	1	f	1	0.5433726256305818
14	66	87	n/a	n/a	n/a	f	7	0.02000000000000001	0	f	1	0.5402245664736256
14	67	67	n/a	n/a	n/a	f	7	0.03000000000000001	0	f	1	0.5782199467648752
14	68	67	n/a	n/a	n/a	j	7	0.04000000000000001	1	j	1	0.5112839188950602
14	69	87	n/a	n/a	n/a	f	7	0.03000000000000001	0	f	1	0.5780597213306464
14	70	67	n/a	n/a	n/a	f	7	0.04000000000000001	1	f	1	0.6403754406783264
14	71	87	n/a	n/a	n/a	f	7	0.03000000000000001	2	f	1	0.5331698007357772
15	0	112	j	1	0.7975220937223639	j	12	0.14	0	j	1	0.9490363381046336
15	1	72	n/a	n/a	n/a	j	12	0.15	1	j	1	0.9209515566180926
15	2	92	n/a	n/a	n/a	f	12	0.14	1	f	1	0.9567237377050333
15	3	92	n/a	n/a	n/a	j	12	0.13	1	j	1	0.9488946440687869
15	4	92	n/a	n/a	n/a	j	12	0.12	1	j	1	0.9136467593489215
15	5	92	n/a	n/a	n/a	j	12	0.11	1	j	1	0.8879017823783215
15	6	92	n/a	n/a	n/a	j	12	0.1	0	j	1	0.9337251159013249
15	7	72	n/a	n/a	n/a	j	12	0.11	1	j	1	0.8676614898431581
15	8	92	n/a	n/a	n/a	f	12	0.1	0	f	1	0.8495956446276978
15	9	72	n/a	n/a	n/a	j	12	0.11	0	j	1	0.9290837100706995
15	10	72	n/a	n/a	n/a	j	12	0.12	1	j	1	0.9585643344908021
15	11	92	n/a	n/a	n/a	j	12	0.11	1	j	1	0.9564243841450661
15	12	92	n/a	n/a	n/a	j	12	0.1	1	j	1	0.964553401543526
15	13	92	n/a	n/a	n/a	j	12	0.09000000000000002	1	j	1	0.8949015240650624
15	14	92	n/a	n/a	n/a	f	12	0.08000000000000003	0	f	1	0.8872463406296447
15	15	72	n/a	n/a	n/a	j	12	0.09000000000000002	0	j	1	0.9639438606391195
15	16	72	n/a	n/a	n/a	j	12	0.1	1	j	1	0.934125679457793
15	17	92	n/a	n/a	n/a	j	12	0.09000000000000002	1	j	1	0.9401945740974043
15	18	92	n/a	n/a	n/a	j	12	0.08000000000000003	1	j	1	0.987032858771272
15	19	92	n/a	n/a	n/a	j	12	0.07000000000000003	1	j	1	0.8499046915094368
15	20	92	n/a	n/a	n/a	f	12	0.06000000000000003	0	f	1	0.8870057173771784
15	21	72	n/a	n/a	n/a	j	12	0.07000000000000003	0	j	1	0.9216443462937605
15	22	72	n/a	n/a	n/a	j	12	0.08000000000000003	1	j	1	1.006516214401927
15	23	92	n/a	n/a	n/a	j	12	0.07000000000000003	1	j	1	0.9479327212902717
15	24	92	n/a	n/a	n/a	j	12	0.06000000000000003	1	j	1	0.9958099053765181
15	25	92	n/a	n/a	n/a	j	12	0.05000000000000003	1	j	1	0.8666425473347772
15	26	92	n/a	n/a	n/a	f	12	0.04000000000000003	0	f	1	0.9735399956407491
15	27	72	n/a	n/a	n/a	j	12	0.05000000000000003	1	j	1	0.96355755199329
15	28	92	n/a	n/a	n/a	j	12	0.04000000000000003	1	j	1	0.9534177339228336
15	29	92	n/a	n/a	n/a	j	12	0.03000000000000003	0	j	1	0.9892951164511032
15	30	72	n/a	n/a	n/a	j	12	0.04000000000000003	1	j	1	0.9424502745096106
15	31	92	n/a	n/a	n/a	j	12	0.03000000000000003	0	j	1	0.8943940484896302
15	32	72	n/a	n/a	n/a	f	12	0.04000000000000003	0	f	1	1.031318655324867
15	33	72	n/a	n/a	n/a	j	12	0.05000000000000003	1	j	1	1.07027396268677
15	34	92	n/a	n/a	n/a	j	12	0.04000000000000003	2	j	1	1.030278045305749
15	35	112	n/a	n/a	n/a	j	12	0.05000000000000003	1	j	1	0.7981253624311648
15	36	92	n/a	n/a	n/a	j	12	0.04000000000000003	0	j	1	0.948107486765366
15	37	72	n/a	n/a	n/a	j	12	0.05000000000000003	1	j	1	0.8811842883296777
15	38	92	n/a	n/a	n/a	f	12	0.04000000000000003	0	f	1	0.8350239682476968
15	39	72	n/a	n/a	n/a	j	12	0.05000000000000003	0	j	1	1.001053724554367
15	40	72	n/a	n/a	n/a	j	12	0.06000000000000003	1	j	1	0.8960005793196615
15	41	92	n/a	n/a	n/a	j	12	0.05000000000000003	0	j	1	0.8304934658226557
15	42	72	n/a	n/a	n/a	j	12	0.06000000000000003	0	j	1	0.9878020548785571
15	43	72	n/a	n/a	n/a	j	12	0.07000000000000003	1	j	1	0.8536525981908198
15	44	92	n/a	n/a	n/a	f	12	0.06000000000000003	0	f	1	0.8976627043739427
15	45	72	n/a	n/a	n/a	j	12	0.07000000000000003	0	j	1	0.8477194104925729
15	46	72	n/a	n/a	n/a	j	12	0.08000000000000003	0	j	1	0.9655481106892694
15	47	72	n/a	n/a	n/a	j	12	0.09000000000000002	1	j	1	0.992083666176768
15	48	92	n/a	n/a	n/a	j	12	0.08000000000000003	1	j	1	0.9904640208405908
15	49	92	n/a	n/a	n/a	j	12	0.07000000000000003	1	j	1	0.8483808393066283
15	50	92	n/a	n/a	n/a	f	12	0.06000000000000003	0	f	1	0.8433263256156351
15	51	72	n/a	n/a	n/a	j	12	0.07000000000000003	0	j	1	0.9263136917434167
15	52	72	n/a	n/a	n/a	j	12	0.08000000000000003	1	j	1	0.9511680205760058
15	53	92	n/a	n/a	n/a	j	12	0.07000000000000003	1	j	1	0.9299521205539349
15	54	92	n/a	n/a	n/a	j	12	0.06000000000000003	1	j	1	0.9932177885493729
15	55	92	n/a	n/a	n/a	j	12	0.05000000000000003	1	j	1	0.9011734089581296
15	56	92	n/a	n/a	n/a	f	12	0.04000000000000003	0	f	1	0.9121767907927278
15	57	72	n/a	n/a	n/a	j	12	0.05000000000000003	0	j	1	0.9430424243910238
15	58	72	n/a	n/a	n/a	j	12	0.06000000000000003	1	j	1	0.8909580397594254
15	59	92	n/a	n/a	n/a	j	12	0.05000000000000003	0	j	1	0.8517663856327999
15	60	72	n/a	n/a	n/a	j	12	0.06000000000000003	0	j	1	0.976028051431058
15	61	72	n/a	n/a	n/a	j	12	0.07000000000000003	1	j	1	0.9328051025804598
15	62	92	n/a	n/a	n/a	f	12	0.06000000000000003	1	f	1	0.8936342606612016
15	63	92	n/a	n/a	n/a	j	12	0.05000000000000003	0	j	1	0.873655688657891
15	64	72	n/a	n/a	n/a	j	12	0.06000000000000003	0	j	1	1.069590011029504
15	65	72	n/a	n/a	n/a	j	12	0.07000000000000003	2	j	1	1.173494208807824
15	66	112	n/a	n/a	n/a	j	12	0.08000000000000003	2	j	1	0.8324680590012576
15	67	112	n/a	n/a	n/a	j	12	0.09000000000000002	0	j	1	0.9874123250483535
15	68	72	n/a	n/a	n/a	f	12	0.1	1	f	1	0.848442990827607
15	69	92	n/a	n/a	n/a	j	12	0.09000000000000002	0	j	1	0.8443481191061437
15	70	72	n/a	n/a	n/a	j	12	0.1	0	j	1	0.9012364157533739
15	71	72	n/a	n/a	n/a	j	12	0.11	1	j	1	0.8552437336766161
16	0	82	j	1	1.408125824294984	j	2	0.06000000000000002	2	j	1	0.435610188083956
16	1	102	n/a	n/a	n/a	f	2	0.07000000000000002	1	f	1	0.4218892460339703
16	2	82	n/a	n/a	n/a	j	2	0.06000000000000002	1	j	1	0.4280231431766879
16	3	82	n/a	n/a	n/a	j	2	0.05000000000000002	1	j	1	0.4365493029472418
16	4	82	n/a	n/a	n/a	j	2	0.04000000000000001	2	j	1	0.4112436629948206
16	5	102	n/a	n/a	n/a	f	2	0.05000000000000002	1	f	1	0.4244488615659066
16	6	82	n/a	n/a	n/a	j	2	0.04000000000000001	1	j	1	0.4423268268001266
16	7	82	n/a	n/a	n/a	j	2	0.03000000000000001	2	j	1	0.4312561616825406
16	8	102	n/a	n/a	n/a	j	2	0.04000000000000001	2	j	1	0.420314646238694
16	9	102	n/a	n/a	n/a	f	2	0.05000000000000002	1	f	1	0.2803731256863102
16	10	82	n/a	n/a	n/a	j	2	0.04000000000000001	0	j	1	0.5423323007125873
16	11	62	n/a	n/a	n/a	j	2	0.05000000000000002	2	j	1	0.4997690701275133
16	12	102	n/a	n/a	n/a	j	2	0.06000000000000002	2	j	1	0.4521755591849796
16	13	102	n/a	n/a	n/a	f	2	0.07000000000000002	1	f	1	0.4820752785890363
16	14	82	n/a	n/a	n/a	j	2	0.06000000000000002	2	j	1	0.4571670660807285
16	15	102	n/a	n/a	n/a	j	2	0.07000000000000002	2	j	1	0.4519968023523688
16	16	102	n/a	n/a	n/a	j	2	0.08000000000000002	1	j	1	0.4575796038261615
16	17	82	n/a	n/a	n/a	f	2	0.07000000000000002	2	f	1	0.4508321744215209
16	18	102	n/a	n/a	n/a	j	2	0.08000000000000002	1	j	1	0.4356854541110806
16	19	82	n/a	n/a	n/a	j	2	0.07000000000000002	1	j	1	0.4550117204198614
16	20	82	n/a	n/a	n/a	j	2	0.06000000000000002	2	j	1	0.3714054051379208
16	21	102	n/a	n/a	n/a	f	2	0.07000000000000002	1	f	1	0.4548991064366419
16	22	82	n/a	n/a	n/a	j	2	0.06000000000000002	2	j	1	0.4055049125454389
16	23	102	n/a	n/a	n/a	j	2	0.07000000000000002	1	j	1	0.3948459298408125
16	24	82	n/a	n/a	n/a	j	2	0.06000000000000002	1	j	1	0.3775552677980158
16	25	82	n/a	n/a	n/a	f	2	0.05000000000000002	1	f	1	0.4065586370998062
16	26	82	n/a	n/a	n/a	j	2	0.04000000000000001	1	j	1	0.4118269747705199
16	27	82	n/a	n/a	n/a	j	2	0.03000000000000001	1	j	1	0.4138426221325062
16	28	82	n/a	n/a	n/a	j	2	0.02000000000000001	2	j	1	0.4126472035713959
16	29	102	n/a	n/a	n/a	f	2	0.03000000000000001	2	j	0	1.122846151090926
16	30	122	n/a	n/a	n/a	j	2	0.02000000000000001	2	j	1	0.392562859953614
16	31	102	n/a	n/a	n/a	j	2	0.03000000000000001	1	j	1	0.3965516749594826
16	32	82	n/a	n/a	n/a	j	2	0.02000000000000001	1	j	1	0.4236548618937377
16	33	82	n/a	n/a	n/a	f	2	0.01000000000000001	2	f	1	0.355456417251844
16	34	102	n/a	n/a	n/a	j	2	0.02000000000000001	0	j	1	0.4755365413730033
16	35	62	n/a	n/a	n/a	j	2	0.03000000000000001	2	j	1	0.4415174317837227
16	36	102	n/a	n/a	n/a	j	2	0.04000000000000001	2	j	1	0.39747710514348
16	37	102	n/a	n/a	n/a	f	2	0.05000000000000002	1	f	1	0.3995352321944665
16	38	82	n/a	n/a	n/a	j	2	0.04000000000000001	1	j	1	0.3915020079584792
16	39	82	n/a	n/a	n/a	j	2	0.03000000000000001	1	j	1	0.3655001570878085
16	40	82	n/a	n/a	n/a	j	2	0.02000000000000001	0	j	1	0.4433218210469931
16	41	62	n/a	n/a	n/a	f	2	0.03000000000000001	2	f	1	0.4413734569679946
16	42	102	n/a	n/a	n/a	j	2	0.04000000000000001	2	j	1	0.4104322722414508
16	43	102	n/a	n/a	n/a	j	2	0.05000000000000002	1	j	1	0.3859006750572007
16	44	82	n/a	n/a	n/a	j	2	0.04000000000000001	1	j	1	0.3860720193188172
16	45	82	n/a	n/a	n/a	f	2	0.03000000000000001	1	f	1	0.4513060083263554
16	46	82	n/a	n/a	n/a	j	2	0.02000000000000001	2	j	1	0.3664030644868035
16	47	102	n/a	n/a	n/a	j	2	0.03000000000000001	1	j	1	0.3960986532329116
16	48	82	n/a	n/a	n/a	j	2	0.02000000000000001	1	j	1	0.408377281302819
16	49	82	n/a	n/a	n/a	f	2	0.01000000000000001	2	f	1	0.4552566201309673
16	50	102	n/a	n/a	n/a	j	2	0.02000000000000001	2	f	0	0.4051074850431178
16	51	122	n/a	n/a	n/a	j	2	0.03000000000000001	1	j	1	0.2408698587387335
16	52	82	n/a	n/a	n/a	j	2	0.02000000000000001	0	j	1	0.439149687619647
16	53	62	n/a	n/a	n/a	f	2	0.03000000000000001	0	j	0	0.3737788512662519
16	54	122	n/a	n/a	n/a	j	2	0.04000000000000001	1	j	1	0.4147700479952618
16	55	82	n/a	n/a	n/a	j	2	0.03000000000000001	1	f	0	0.4369980482151732
16	56	122	n/a	n/a	n/a	j	2	0.02000000000000001	2	j	1	0.4015098253439646
16	57	102	n/a	n/a	n/a	f	2	0.03000000000000001	2	j	0	0.392267497809371
16	58	122	n/a	n/a	n/a	j	2	0.02000000000000001	1	j	1	0.4189672701177187
16	59	82	n/a	n/a	n/a	j	2	0.01000000000000001	2	j	1	0.4409606341505423
16	60	102	n/a	n/a	n/a	j	2	0.02000000000000001	2	j	1	0.4090019323921297
16	61	102	n/a	n/a	n/a	f	2	0.03000000000000001	1	f	1	0.420845499902498
16	62	82	n/a	n/a	n/a	j	2	0.02000000000000001	2	j	1	0.3899676070723217
16	63	102	n/a	n/a	n/a	j	2	0.03000000000000001	1	j	1	0.4289097999280784
16	64	82	n/a	n/a	n/a	j	2	0.02000000000000001	2	j	1	0.4277939238527324
16	65	102	n/a	n/a	n/a	f	2	0.03000000000000001	2	f	1	0.441820491629187
16	66	102	n/a	n/a	n/a	j	2	0.04000000000000001	2	j	1	0.4110133032954764
16	67	102	n/a	n/a	n/a	j	2	0.05000000000000002	1	j	1	0.3827788449998479
16	68	82	n/a	n/a	n/a	j	2	0.04000000000000001	1	j	1	0.4001162632193882
16	69	82	n/a	n/a	n/a	f	2	0.03000000000000001	1	f	1	0.4037484198343009
16	70	82	n/a	n/a	n/a	j	2	0.02000000000000001	1	j	1	0.371733838779619
16	71	82	n/a	n/a	n/a	j	2	0.01000000000000001	0	j	1	0.4546185694052838
17	0	66	j	1	4.784059736150084	j	6	0.1	0	j	1	0.5234584859281313
17	1	66	n/a	n/a	n/a	f	6	0.11	1	f	1	0.4875049820984714
17	2	86	n/a	n/a	n/a	j	6	0.1	1	j	1	0.5042696371383499
17	3	86	n/a	n/a	n/a	j	6	0.09000000000000001	1	j	1	0.4563494031899609
17	4	86	n/a	n/a	n/a	j	6	0.08000000000000002	1	f	0	0.4302956644096412
17	5	126	n/a	n/a	n/a	f	6	0.09000000000000001	1	j	0	0.4424385854799766
17	6	126	n/a	n/a	n/a	j	6	0.1	0	j	1	0.4368184360791929
17	7	66	n/a	n/a	n/a	j	6	0.11	0	j	1	0.4498702516139019
17	8	66	n/a	n/a	n/a	j	6	0.12	0	j	1	0.4723286115040537
17	9	66	n/a	n/a	n/a	f	6	0.13	1	f	1	0.4140672798675951
17	10	86	n/a	n/a	n/a	j	6	0.12	0	j	1	0.4509904041478876
17	11	66	n/a	n/a	n/a	j	6	0.13	0	j	1	0.4571844571037218
17	12	66	n/a	n/a	n/a	j	6	0.14	1	j	1	0.4789086880336981
17	13	86	n/a	n/a	n/a	f	6	0.13	1	f	1	0.5090242270962335
17	14	86	n/a	n/a	n/a	j	6	0.12	1	j	1	0.4177028576668818
17	15	86	n/a	n/a	n/a	j	6	0.11	0	j	1	0.4377994604583364
17	16	66	n/a	n/a	n/a	j	6	0.12	0	j	1	0.4588688198418822
17	17	66	n/a	n/a	n/a	f	6	0.13	1	f	1	0.4480347865901422
17	18	86	n/a	n/a	n/a	j	6	0.12	0	j	1	0.4618321350717451
17	19	66	n/a	n/a	n/a	j	6	0.13	1	j	1	0.4267977892304771
17	20	86	n/a	n/a	n/a	j	6	0.12	0	j	1	0.4657727684243582
17	21	66	n/a	n/a	n/a	f	6	0.13	1	f	1	0.4949001556087751
17	22	86	n/a	n/a	n/a	j	6	0.12	1	j	1	0.4357527373940684
17	23	86	n/a	n/a	n/a	j	6	0.11	0	j	1	0.4078415809781291
17	24	66	n/a	n/a	n/a	j	6	0.12	0	j	1	0.4753823030041531
17	25	66	n/a	n/a	n/a	f	6	0.13	0	j	0	0.4814047265972476
17	26	126	n/a	n/a	n/a	j	6	0.12	1	j	1	0.5004245118470863
17	27	86	n/a	n/a	n/a	j	6	0.11	1	j	1	0.5116180545010138
17	28	86	n/a	n/a	n/a	j	6	0.1	1	j	1	0.4775980896083638
17	29	86	n/a	n/a	n/a	f	6	0.09000000000000002	0	f	1	0.4916765453235712
17	30	66	n/a	n/a	n/a	j	6	0.1	1	j	1	0.4754307697876357
17	31	86	n/a	n/a	n/a	j	6	0.09000000000000002	0	j	1	0.4556298142415471
17	32	66	n/a	n/a	n/a	j	6	0.1	0	j	1	0.5202049403160345
17	33	66	n/a	n/a	n/a	f	6	0.11	0	j	0	0.4854097922507208
17	34	126	n/a	n/a	n/a	j	6	0.1	1	j	1	0.4733119167212863
17	35	86	n/a	n/a	n/a	j	6	0.09000000000000002	0	j	1	0.5082843961718027
17	36	66	n/a	n/a	n/a	j	6	0.1	1	j	1	0.4583419575938024
17	37	86	n/a	n/a	n/a	f	6	0.09000000000000002	0	f	1	0.463064046256477
17	38	66	n/a	n/a	n/a	j	6	0.1	0	j	1	0.5202850530331489
17	39	66	n/a	n/a	n/a	j	6	0.11	1	j	1	0.5102966223203111
17	40	86	n/a	n/a	n/a	j	6	0.1	1	j	1	0.4672219247731846
17	41	86	n/a	n/a	n/a	f	6	0.09000000000000002	0	f	1	0.5053575735655613
17	42	66	n/a	n/a	n/a	j	6	0.1	1	j	1	0.5208866111352108
17	43	86	n/a	n/a	n/a	j	6	0.09000000000000002	1	j	1	0.5162261037621647
17	44	86	n/a	n/a	n/a	j	6	0.08000000000000003	1	j	1	0.522137909050798
17	45	86	n/a	n/a	n/a	f	6	0.07000000000000003	1	f	1	0.5329679509159178
17	46	86	n/a	n/a	n/a	j	6	0.06000000000000003	1	j	1	0.4721635394380428
17	47	86	n/a	n/a	n/a	j	6	0.05000000000000003	0	j	1	0.517052889772458
17	48	66	n/a	n/a	n/a	j	6	0.06000000000000003	0	j	1	0.521941761195194
17	49	66	n/a	n/a	n/a	f	6	0.07000000000000003	1	f	1	0.5041721334273461
17	50	86	n/a	n/a	n/a	j	6	0.06000000000000003	0	j	1	0.5153973220149055
17	51	66	n/a	n/a	n/a	j	6	0.07000000000000003	1	j	1	0.6017445755715016
17	52	86	n/a	n/a	n/a	j	6	0.06000000000000003	1	j	1	0.4774945988028776
17	53	86	n/a	n/a	n/a	f	6	0.05000000000000003	0	f	1	0.4789876603754237
17	54	66	n/a	n/a	n/a	j	6	0.06000000000000003	0	j	1	0.5499036651744973
17	55	66	n/a	n/a	n/a	j	6	0.07000000000000003	1	j	1	0.5791664742282592
17	56	86	n/a	n/a	n/a	j	6	0.06000000000000003	1	j	1	0.4980422276712488
17	57	86	n/a	n/a	n/a	f	6	0.05000000000000003	0	f	1	0.7163399721321184
17	58	66	n/a	n/a	n/a	j	6	0.06000000000000003	2	j	1	0.5528450277925003
17	59	106	n/a	n/a	n/a	j	6	0.07000000000000003	1	j	1	0.509594994597137
17	60	86	n/a	n/a	n/a	j	6	0.06000000000000003	0	j	1	0.504841545043746
17	61	66	n/a	n/a	n/a	f	6	0.07000000000000003	0	f	1	0.4633494300069287
17	62	66	n/a	n/a	n/a	j	6	0.08000000000000003	0	j	1	0.5539885584148578
17	63	66	n/a	n/a	n/a	j	6	0.09000000000000002	1	j	1	0.572963868296938
17	64	86	n/a	n/a	n/a	j	6	0.08000000000000003	1	j	1	0.5779428308887873
17	65	86	n/a	n/a	n/a	f	6	0.07000000000000003	1	f	1	0.5974264716496691
17	66	86	n/a	n/a	n/a	j	6	0.06000000000000003	1	j	1	0.5774054199573584
17	67	86	n/a	n/a	n/a	j	6	0.05000000000000003	1	j	1	0.5525160239776596
17	68	86	n/a	n/a	n/a	j	6	0.04000000000000003	1	j	1	0.5238516369427089
17	69	86	n/a	n/a	n/a	f	6	0.03000000000000003	0	f	1	0.5203195499489084
17	70	66	n/a	n/a	n/a	j	6	0.04000000000000003	0	j	1	0.5158144213201012
17	71	66	n/a	n/a	n/a	j	6	0.05000000000000003	0	j	1	0.6952415327250492
18	0	65	f	1	1.446842504112283	f	5	0.04000000000000001	2	f	1	0.5808887550665531
18	1	105	n/a	n/a	n/a	j	5	0.05000000000000002	1	j	1	0.5303407669998705
18	2	85	n/a	n/a	n/a	f	5	0.04000000000000001	0	f	1	0.5971142886264715
18	3	65	n/a	n/a	n/a	f	5	0.05000000000000002	1	f	1	0.5717271104222164
18	4	85	n/a	n/a	n/a	f	5	0.04000000000000001	1	f	1	0.6726642866560724
18	5	85	n/a	n/a	n/a	j	5	0.03000000000000001	2	j	1	0.5841480026720092
18	6	105	n/a	n/a	n/a	f	5	0.04000000000000001	1	f	1	0.5320194277446717
18	7	85	n/a	n/a	n/a	f	5	0.03000000000000001	0	f	1	0.5359962686197832
18	8	65	n/a	n/a	n/a	f	5	0.04000000000000001	0	f	1	0.6524673291423824
18	9	65	n/a	n/a	n/a	j	5	0.05000000000000002	2	j	1	0.5699033344571944
18	10	105	n/a	n/a	n/a	f	5	0.06000000000000002	1	f	1	0.5520139652944636
18	11	85	n/a	n/a	n/a	f	5	0.05000000000000002	1	f	1	0.5243790694221389
18	12	85	n/a	n/a	n/a	f	5	0.04000000000000001	0	f	1	0.5279664655390661
18	13	65	n/a	n/a	n/a	j	5	0.05000000000000002	0	j	1	0.5248050067748409
18	14	65	n/a	n/a	n/a	f	5	0.06000000000000002	0	f	1	0.5259818939375691
18	15	65	n/a	n/a	n/a	f	5	0.07000000000000002	1	f	1	0.5422892508213408
18	16	85	n/a	n/a	n/a	f	5	0.06000000000000002	1	f	1	0.513579248014139
18	17	85	n/a	n/a	n/a	j	5	0.05000000000000002	0	j	1	0.5675769295776263
18	18	65	n/a	n/a	n/a	f	5	0.06000000000000002	1	f	1	0.5955659179307986
18	19	85	n/a	n/a	n/a	f	5	0.05000000000000002	1	f	1	0.5835587038018275
18	20	85	n/a	n/a	n/a	f	5	0.04000000000000001	1	f	1	0.5334842645388562
18	21	85	n/a	n/a	n/a	j	5	0.03000000000000001	0	j	1	0.611458456289256
18	22	65	n/a	n/a	n/a	f	5	0.04000000000000001	1	f	1	0.6584675150224939
18	23	85	n/a	n/a	n/a	f	5	0.03000000000000001	2	f	1	0.5185094587213825
18	24	105	n/a	n/a	n/a	f	5	0.04000000000000001	0	f	1	0.6341477461101022
18	25	65	n/a	n/a	n/a	j	5	0.05000000000000002	0	f	0	0.5524832376395352
18	26	125	n/a	n/a	n/a	f	5	0.06000000000000002	1	f	1	0.5942872505693231
18	27	85	n/a	n/a	n/a	f	5	0.05000000000000002	1	f	1	0.519216788437916
18	28	85	n/a	n/a	n/a	f	5	0.04000000000000001	0	f	1	0.6118393480719533
18	29	65	n/a	n/a	n/a	j	5	0.05000000000000002	1	j	1	0.5118455631891266
18	30	85	n/a	n/a	n/a	f	5	0.04000000000000001	0	f	1	0.5411998889176175
18	31	65	n/a	n/a	n/a	f	5	0.05000000000000002	1	f	1	0.5526887937448919
18	32	85	n/a	n/a	n/a	f	5	0.04000000000000001	1	f	1	0.5411585496040061
18	33	85	n/a	n/a	n/a	j	5	0.03000000000000001	0	j	1	0.4921737573458813
18	34	65	n/a	n/a	n/a	f	5	0.04000000000000001	0	f	1	0.5970153593807481
18	35	65	n/a	n/a	n/a	f	5	0.05000000000000002	1	f	1	0.5319835053232964
18	36	85	n/a	n/a	n/a	f	5	0.04000000000000001	0	f	1	0.5269720415235497
18	37	65	n/a	n/a	n/a	j	5	0.05000000000000002	0	j	1	0.5661380367528182
18	38	65	n/a	n/a	n/a	f	5	0.06000000000000002	1	f	1	0.6210104009660427
18	39	85	n/a	n/a	n/a	f	5	0.05000000000000002	1	f	1	0.4989630962663796
18	40	85	n/a	n/a	n/a	f	5	0.04000000000000001	0	f	1	0.5766151265415829
18	41	65	n/a	n/a	n/a	j	5	0.05000000000000002	1	j	1	0.5098193672019988
18	42	85	n/a	n/a	n/a	f	5	0.04000000000000001	0	f	1	0.6267676828138065
18	43	65	n/a	n/a	n/a	f	5	0.05000000000000002	1	f	1	0.4036340953025501
18	44	85	n/a	n/a	n/a	f	5	0.04000000000000001	0	f	1	0.6537459965038579
18	45	65	n/a	n/a	n/a	j	5	0.05000000000000002	2	j	1	0.5097697600431275
18	46	105	n/a	n/a	n/a	f	5	0.06000000000000002	0	f	1	1.020520259393379
18	47	65	n/a	n/a	n/a	f	5	0.07000000000000002	2	f	1	0.5200387278164271
18	48	105	n/a	n/a	n/a	f	5	0.08000000000000002	1	f	1	0.6525662583298981
18	49	85	n/a	n/a	n/a	j	5	0.07000000000000002	1	j	1	0.4944950304634403
18	50	85	n/a	n/a	n/a	f	5	0.06000000000000002	0	f	1	0.6023963110346813
18	51	65	n/a	n/a	n/a	f	5	0.07000000000000002	1	f	1	0.5366038138163276
18	52	85	n/a	n/a	n/a	f	5	0.06000000000000002	1	f	1	0.5564948605024256
18	53	85	n/a	n/a	n/a	j	5	0.05000000000000002	1	j	1	0.5065293289371766
18	54	85	n/a	n/a	n/a	f	5	0.04000000000000001	0	f	1	0.558970657089958
18	55	65	n/a	n/a	n/a	f	5	0.05000000000000002	1	f	1	0.5723839776765089
18	56	85	n/a	n/a	n/a	f	5	0.04000000000000001	1	f	1	0.5309397592500318
18	57	85	n/a	n/a	n/a	j	5	0.03000000000000001	0	j	1	0.525511766289128
18	58	65	n/a	n/a	n/a	f	5	0.04000000000000001	0	f	1	0.6252429753367323
18	59	65	n/a	n/a	n/a	f	5	0.05000000000000002	1	f	1	0.5142329791851807
18	60	85	n/a	n/a	n/a	f	5	0.04000000000000001	0	f	1	0.5718705150356982
18	61	65	n/a	n/a	n/a	j	5	0.05000000000000002	1	j	1	0.4916771155549213
18	62	85	n/a	n/a	n/a	f	5	0.04000000000000001	0	f	1	0.5471564547333401
18	63	65	n/a	n/a	n/a	f	5	0.05000000000000002	1	f	1	0.5550408574927133
18	64	85	n/a	n/a	n/a	f	5	0.04000000000000001	1	f	1	0.5769042165484279
18	65	85	n/a	n/a	n/a	j	5	0.03000000000000001	1	j	1	0.5590963855793234
18	66	85	n/a	n/a	n/a	f	5	0.02000000000000001	0	f	1	0.5737362005165778
18	67	65	n/a	n/a	n/a	f	5	0.03000000000000001	1	f	1	0.5459456408279948
18	68	85	n/a	n/a	n/a	f	5	0.02000000000000001	0	f	1	0.6087354792107362
18	69	65	n/a	n/a	n/a	j	5	0.03000000000000001	1	j	1	0.735557900974527
18	70	85	n/a	n/a	n/a	f	5	0.02000000000000001	2	f	1	0.6108549024793319
18	71	105	n/a	n/a	n/a	f	5	0.03000000000000001	1	f	1	0.673414096061606
19	0	90	j	1	1.380786575726233	j	10	0.08000000000000002	0	j	1	1.177231281704735
19	1	70	n/a	n/a	n/a	f	10	0.09000000000000001	2	f	1	1.086109766387381
19	2	110	n/a	n/a	n/a	j	10	0.1	1	j	1	0.9890445147175342
19	3	90	n/a	n/a	n/a	j	10	0.09000000000000001	1	j	1	0.977159037720412
19	4	90	n/a	n/a	n/a	j	10	0.08000000000000002	1	j	1	0.9889584149350412
19	5	90	n/a	n/a	n/a	f	10	0.07000000000000002	1	f	1	0.9290634680946823
19	6	90	n/a	n/a	n/a	j	10	0.06000000000000002	1	j	1	1.02078967759735
19	7	90	n/a	n/a	n/a	j	10	0.05000000000000002	1	j	1	0.9929346856079064
19	8	90	n/a	n/a	n/a	j	10	0.04000000000000001	1	j	1	1.555362448765663
19	9	90	n/a	n/a	n/a	f	10	0.03000000000000001	2	f	1	0.8714587185822893
19	10	110	n/a	n/a	n/a	j	10	0.04000000000000001	0	j	1	0.787553905043751
19	11	70	n/a	n/a	n/a	j	10	0.05000000000000002	0	j	1	0.9825317214999814
19	12	70	n/a	n/a	n/a	j	10	0.06000000000000002	1	j	1	1.072590674186358
19	13	90	n/a	n/a	n/a	f	10	0.05000000000000002	2	f	1	1.007433091639541
19	14	110	n/a	n/a	n/a	j	10	0.06000000000000002	1	j	1	0.9654027103679255
19	15	90	n/a	n/a	n/a	j	10	0.05000000000000002	1	j	1	0.9653017854434438
19	16	90	n/a	n/a	n/a	j	10	0.04000000000000001	1	j	1	0.8762728941219393
19	17	90	n/a	n/a	n/a	f	10	0.03000000000000001	0	f	1	0.9188589326513465
19	18	70	n/a	n/a	n/a	j	10	0.04000000000000001	0	j	1	1.062233896052931
19	19	70	n/a	n/a	n/a	j	10	0.05000000000000002	2	j	1	0.8461294153821655
19	20	110	n/a	n/a	n/a	j	10	0.06000000000000002	0	j	1	0.9388725717435591
19	21	70	n/a	n/a	n/a	f	10	0.07000000000000002	1	f	1	1.016134016885189
19	22	90	n/a	n/a	n/a	j	10	0.06000000000000002	1	j	1	1.075894967390923
19	23	90	n/a	n/a	n/a	j	10	0.05000000000000002	2	j	1	0.9849790081789251
19	24	110	n/a	n/a	n/a	j	10	0.06000000000000002	1	j	1	0.9087881084124092
19	25	90	n/a	n/a	n/a	f	10	0.05000000000000002	0	f	1	0.8497607167228125
19	26	70	n/a	n/a	n/a	j	10	0.06000000000000002	0	j	1	1.132768438896164
19	27	70	n/a	n/a	n/a	j	10	0.07000000000000002	2	j	1	0.9458914150600322
19	28	110	n/a	n/a	n/a	j	10	0.08000000000000002	1	j	1	0.9976713143405505
19	29	90	n/a	n/a	n/a	f	10	0.07000000000000002	1	f	1	0.9475096349196974
19	30	90	n/a	n/a	n/a	j	10	0.06000000000000002	1	j	1	0.9514345877978485
19	31	90	n/a	n/a	n/a	j	10	0.05000000000000002	1	j	1	0.9286517856817227
19	32	90	n/a	n/a	n/a	j	10	0.04000000000000001	0	j	1	1.111195310222683
19	33	70	n/a	n/a	n/a	f	10	0.05000000000000002	2	f	1	0.9461103708017617
19	34	110	n/a	n/a	n/a	j	10	0.06000000000000002	1	j	1	0.8259233346907422
19	35	90	n/a	n/a	n/a	j	10	0.05000000000000002	0	j	1	0.8792171077220701
19	36	70	n/a	n/a	n/a	j	10	0.06000000000000002	0	j	1	0.9476821195858065
19	37	70	n/a	n/a	n/a	f	10	0.07000000000000002	1	f	1	0.9191557203012053
19	38	90	n/a	n/a	n/a	j	10	0.06000000000000002	0	j	1	0.8550758105702698
19	39	70	n/a	n/a	n/a	j	10	0.07000000000000002	0	j	1	1.057097844139207
19	40	70	n/a	n/a	n/a	j	10	0.08000000000000002	1	j	1	0.9799301964521874
19	41	90	n/a	n/a	n/a	f	10	0.07000000000000002	1	f	1	0.9227539501735009
19	42	90	n/a	n/a	n/a	j	10	0.06000000000000002	0	j	1	1.003910983068636
19	43	70	n/a	n/a	n/a	j	10	0.07000000000000002	1	j	1	0.9374892731721047
19	44	90	n/a	n/a	n/a	j	10	0.06000000000000002	1	j	1	0.9525915180856828
19	45	90	n/a	n/a	n/a	f	10	0.05000000000000002	1	f	1	0.9796205793390982
19	46	90	n/a	n/a	n/a	j	10	0.04000000000000001	1	j	1	0.9367719650035724
19	47	90	n/a	n/a	n/a	j	10	0.03000000000000001	0	j	1	0.9395676422282122
19	48	70	n/a	n/a	n/a	j	10	0.04000000000000001	0	j	1	1.051580615341663
19	49	70	n/a	n/a	n/a	f	10	0.05000000000000002	2	f	1	0.9015069743618369
19	50	110	n/a	n/a	n/a	j	10	0.06000000000000002	0	j	1	0.9510075100697577
19	51	70	n/a	n/a	n/a	j	10	0.07000000000000002	1	j	1	0.960493311897153
19	52	90	n/a	n/a	n/a	j	10	0.06000000000000002	1	j	1	1.047875758580631
19	53	90	n/a	n/a	n/a	f	10	0.05000000000000002	2	f	1	0.8840979963715654
19	54	110	n/a	n/a	n/a	j	10	0.06000000000000002	0	j	1	0.9283262030221522
19	55	70	n/a	n/a	n/a	j	10	0.07000000000000002	1	j	1	0.9041774932993576
19	56	90	n/a	n/a	n/a	j	10	0.06000000000000002	0	j	1	1.01112540406757
19	57	70	n/a	n/a	n/a	f	10	0.07000000000000002	1	f	1	0.9150078202364966
19	58	90	n/a	n/a	n/a	j	10	0.06000000000000002	0	j	1	1.016116340790177
19	59	70	n/a	n/a	n/a	j	10	0.07000000000000002	1	j	1	0.7619318055512849
19	60	90	n/a	n/a	n/a	j	10	0.06000000000000002	0	j	1	1.020856390678091
19	61	70	n/a	n/a	n/a	f	10	0.07000000000000002	1	f	1	0.9228856657573488
19	62	90	n/a	n/a	n/a	j	10	0.06000000000000002	0	j	1	1.006717208947521
19	63	70	n/a	n/a	n/a	j	10	0.07000000000000002	1	j	1	0.9264052084181458
19	64	90	n/a	n/a	n/a	j	10	0.06000000000000002	1	j	1	1.052764915075386
19	65	90	n/a	n/a	n/a	f	10	0.05000000000000002	2	f	1	0.9085221113928128
19	66	110	n/a	n/a	n/a	j	10	0.06000000000000002	0	j	1	0.8889586430159397
19	67	70	n/a	n/a	n/a	j	10	0.07000000000000002	0	j	1	0.8853746680833865
19	68	70	n/a	n/a	n/a	j	10	0.08000000000000002	0	j	1	0.9394327905611135
19	69	70	n/a	n/a	n/a	f	10	0.09000000000000001	1	f	1	0.7622089214273728
19	70	90	n/a	n/a	n/a	j	10	0.08000000000000002	0	j	1	0.9513251099560875
19	71	70	n/a	n/a	n/a	j	10	0.09000000000000001	1	j	1	0.836393582081655
20	0	83	f	1	0.8591983368387446	f	3	0.12	2	f	1	0.4644211157865357
20	1	103	n/a	n/a	n/a	f	3	0.13	1	f	1	0.4044968037633225
20	2	83	n/a	n/a	n/a	j	3	0.12	1	j	1	0.4029532797576394
20	3	83	n/a	n/a	n/a	f	3	0.11	1	f	1	0.4473747832525987
20	4	83	n/a	n/a	n/a	f	3	0.1	1	f	1	0.4293605408456642
20	5	83	n/a	n/a	n/a	f	3	0.09000000000000002	1	f	1	0.4112696069350932
20	6	83	n/a	n/a	n/a	f	3	0.08000000000000003	1	f	1	0.4485217350593302
20	7	83	n/a	n/a	n/a	f	3	0.07000000000000003	1	f	1	0.423433910444146
20	8	83	n/a	n/a	n/a	j	3	0.06000000000000003	1	j	1	0.4372375310631469
20	9	83	n/a	n/a	n/a	f	3	0.05000000000000003	2	f	1	0.432374318537768
20	10	103	n/a	n/a	n/a	f	3	0.06000000000000003	1	f	1	0.4522716374194715
20	11	83	n/a	n/a	n/a	f	3	0.05000000000000003	2	f	1	0.4091587366710883
20	12	103	n/a	n/a	n/a	f	3	0.06000000000000003	1	f	1	0.4221444092981983
20	13	83	n/a	n/a	n/a	f	3	0.05000000000000003	1	f	1	0.4181005702412222
20	14	83	n/a	n/a	n/a	j	3	0.04000000000000003	1	j	1	0.4310021387937013
20	15	83	n/a	n/a	n/a	f	3	0.03000000000000003	2	f	1	0.4322026891459245
20	16	103	n/a	n/a	n/a	f	3	0.04000000000000003	2	f	1	0.4360523760260548
20	17	103	n/a	n/a	n/a	f	3	0.05000000000000003	2	f	1	0.2970750590611715
20	18	103	n/a	n/a	n/a	f	3	0.06000000000000003	0	f	1	0.5337981581687927
20	19	63	n/a	n/a	n/a	f	3	0.07000000000000003	2	f	1	0.4820114164904226
20	20	103	n/a	n/a	n/a	j	3	0.08000000000000003	2	j	1	0.4960739066882525
20	21	103	n/a	n/a	n/a	f	3	0.09000000000000002	2	f	1	0.469019471667707
20	22	103	n/a	n/a	n/a	f	3	0.1	1	f	1	0.4598937494447455
20	23	83	n/a	n/a	n/a	f	3	0.09000000000000002	1	f	1	0.4589175716973841
20	24	83	n/a	n/a	n/a	f	3	0.08000000000000003	1	f	1	0.3959344364120625
20	25	83	n/a	n/a	n/a	f	3	0.07000000000000003	1	f	1	0.4764998896571342
20	26	83	n/a	n/a	n/a	j	3	0.06000000000000003	2	j	1	0.4245517821982503
20	27	103	n/a	n/a	n/a	f	3	0.07000000000000003	1	f	1	0.4368552137748338
20	28	83	n/a	n/a	n/a	f	3	0.06000000000000003	1	f	1	0.4587365340557881
20	29	83	n/a	n/a	n/a	f	3	0.05000000000000003	2	f	1	0.42971377808135
20	30	103	n/a	n/a	n/a	f	3	0.06000000000000003	1	f	1	0.419290571968304
20	31	83	n/a	n/a	n/a	f	3	0.05000000000000003	1	f	1	0.4416146504227072
20	32	83	n/a	n/a	n/a	j	3	0.04000000000000003	2	j	1	0.4247638955712318
20	33	103	n/a	n/a	n/a	f	3	0.05000000000000003	1	f	1	0.4389717860613018
20	34	83	n/a	n/a	n/a	f	3	0.04000000000000003	2	f	1	0.454613437585067
20	35	103	n/a	n/a	n/a	f	3	0.05000000000000003	2	f	1	0.4255519081780221
20	36	103	n/a	n/a	n/a	f	3	0.06000000000000003	1	f	1	0.404556674475316
20	37	83	n/a	n/a	n/a	f	3	0.05000000000000003	1	f	1	0.4955048498231918
20	38	83	n/a	n/a	n/a	j	3	0.04000000000000003	2	j	1	0.4704589346656576
20	39	103	n/a	n/a	n/a	f	3	0.05000000000000003	2	f	1	0.4094560945231933
20	40	103	n/a	n/a	n/a	f	3	0.06000000000000003	1	f	1	0.4641263237863313
20	41	83	n/a	n/a	n/a	f	3	0.05000000000000003	2	f	1	0.4119236232072581
20	42	103	n/a	n/a	n/a	f	3	0.06000000000000003	1	f	1	0.4325456628284883
20	43	83	n/a	n/a	n/a	f	3	0.05000000000000003	2	f	1	0.4320347660686821
20	44	103	n/a	n/a	n/a	j	3	0.06000000000000003	1	j	1	0.4133787666505668
20	45	83	n/a	n/a	n/a	f	3	0.05000000000000003	1	f	1	0.4243120142200496
20	46	83	n/a	n/a	n/a	f	3	0.04000000000000003	1	f	1	0.477302727435017
20	47	83	n/a	n/a	n/a	f	3	0.03000000000000003	2	f	1	0.4048987928254064
20	48	103	n/a	n/a	n/a	f	3	0.04000000000000003	1	f	1	0.4761962596094236
20	49	83	n/a	n/a	n/a	f	3	0.03000000000000003	2	f	1	0.4184777557384223
20	50	103	n/a	n/a	n/a	j	3	0.04000000000000003	1	j	1	0.3990360244933981
20	51	83	n/a	n/a	n/a	f	3	0.03000000000000003	1	f	1	0.3631506592209917
20	52	83	n/a	n/a	n/a	f	3	0.02000000000000002	1	f	1	0.4802600555703975
20	53	83	n/a	n/a	n/a	f	3	0.01000000000000002	2	f	1	0.4550274008361157
20	54	103	n/a	n/a	n/a	f	3	0.02000000000000002	2	f	1	0.4268071974802297
20	55	103	n/a	n/a	n/a	f	3	0.03000000000000003	2	f	1	0.4331765861134045
20	56	103	n/a	n/a	n/a	j	3	0.04000000000000003	2	j	1	0.4200261264340952
20	57	103	n/a	n/a	n/a	f	3	0.05000000000000003	1	f	1	0.482478693156736
20	58	83	n/a	n/a	n/a	f	3	0.04000000000000003	2	f	1	0.441301326995017
