blockLoop_thisRepN	trialLoop_thisRepN	firstKey	readyKey_corr	readyKey_rt	targetKey	blockType	margin	outcome	trialResp_keys	trialResp_corr	trialResp_rt
0	0	f	1	6.010282878955877	f	7	0.1	0	f	1	1.77075520487324
0	1	n/a	n/a	n/a	f	7	0.11	0	j	0	0.60130751190718
0	2	n/a	n/a	n/a	j	7	0.12	0	f	0	0.6863026281953353
0	3	n/a	n/a	n/a	f	7	0.11	0	j	0	0.7870057344407542
0	4	n/a	n/a	n/a	f	7	0.1	0	j	0	0.5432215620012357
0	5	n/a	n/a	n/a	f	7	0.11	1	f	1	0.5972639810142937
0	6	n/a	n/a	n/a	f	7	0.1	1	j	0	1.108148699758203
0	7	n/a	n/a	n/a	f	7	0.09000000000000001	1	j	0	0.5132450368892023
0	8	n/a	n/a	n/a	j	7	0.1	1	f	0	0.5090971604913648
0	9	n/a	n/a	n/a	f	7	0.09000000000000001	1	j	0	0.9950073811614857
0	10	n/a	n/a	n/a	f	7	0.08000000000000002	1	j	0	0.544140714761852
0	11	n/a	n/a	n/a	f	7	0.09000000000000001	1	f	1	0.4149746634284384
0	12	n/a	n/a	n/a	f	7	0.08000000000000002	1	j	0	1.07788337137481
0	13	n/a	n/a	n/a	f	7	0.09000000000000001	1	j	0	0.4814521587259151
0	14	n/a	n/a	n/a	j	7	0.1	1	f	0	0.4947507938522904
0	15	n/a	n/a	n/a	f	7	0.11	1	f	1	1.766440261627395
0	16	n/a	n/a	n/a	f	7	0.1	2	f	1	0.4266687725830707
0	17	n/a	n/a	n/a	f	7	0.11	2	j	0	0.4976140231237878
0	18	n/a	n/a	n/a	f	7	0.12	1	f	1	2.184738015804214
0	19	n/a	n/a	n/a	f	7	0.11	1	j	0	0.5585050425106601
0	20	n/a	n/a	n/a	j	7	0.12	1	f	0	0.5865297934924456
0	21	n/a	n/a	n/a	f	7	0.11	1	f	1	2.688563447484739
0	22	n/a	n/a	n/a	f	7	0.1	2	f	1	0.4859458577966507
0	23	n/a	n/a	n/a	f	7	0.11	2	j	0	0.6092987810961858
0	24	n/a	n/a	n/a	f	7	0.1	1	f	1	1.382388645383799
0	25	n/a	n/a	n/a	f	7	0.09000000000000001	2	f	1	0.5081472172532813
0	26	n/a	n/a	n/a	j	7	0.1	2	f	0	2.571083807686591
0	27	n/a	n/a	n/a	f	7	0.09000000000000001	2	f	1	0.5367116568750134
0	28	n/a	n/a	n/a	f	7	0.1	2	j	0	0.5260162425465751
0	29	n/a	n/a	n/a	f	7	0.09000000000000001	1	f	1	1.294938558742615
0	30	n/a	n/a	n/a	f	7	0.08000000000000002	2	f	1	0.4449201129664289
0	31	n/a	n/a	n/a	f	7	0.09000000000000001	2	j	0	0.5546633603016744
0	32	n/a	n/a	n/a	j	7	0.1	2	f	0	1.799861613911162
0	33	n/a	n/a	n/a	f	7	0.09000000000000001	2	f	1	0.6205966054067176
0	34	n/a	n/a	n/a	f	7	0.1	2	j	0	0.6236859166065187
0	35	n/a	n/a	n/a	f	7	0.09000000000000001	1	f	1	25.57312510227803
0	36	n/a	n/a	n/a	f	7	0.08000000000000002	2	f	1	0.5778711122038658
0	37	n/a	n/a	n/a	f	7	0.09000000000000001	1	f	1	0.6471348605791718
0	38	n/a	n/a	n/a	j	7	0.08000000000000002	1	f	0	0.6850402186355495
0	39	n/a	n/a	n/a	f	7	0.07000000000000002	1	j	0	1.273697120918769
0	40	n/a	n/a	n/a	f	7	0.08000000000000002	1	j	0	0.720115418673231
0	41	n/a	n/a	n/a	f	7	0.09000000000000001	2	f	1	0.7469339242070419
0	42	n/a	n/a	n/a	f	7	0.1	2	f	1	16.3584895332333
0	43	n/a	n/a	n/a	f	7	0.11	2	f	1	0.7958753875182083
0	44	n/a	n/a	n/a	j	7	0.12	2	f	0	0.8389601029539335
0	45	n/a	n/a	n/a	f	7	0.13	2	j	0	1.219888766549957
0	46	n/a	n/a	n/a	f	7	0.14	2	j	0	0.8400066940776014
0	47	n/a	n/a	n/a	f	7	0.15	2	f	1	0.8467957091752396
0	48	n/a	n/a	n/a	f	7	0.16	2	f	1	3.786648222790973
0	49	n/a	n/a	n/a	f	7	0.17	2	f	1	0.6923355660228481
0	50	n/a	n/a	n/a	j	7	0.18	1	j	1	1.283431473227211
0	51	n/a	n/a	n/a	f	7	0.17	2	f	1	1.209318509810146
0	52	n/a	n/a	n/a	f	7	0.18	2	j	0	0.9993408557129442
0	53	n/a	n/a	n/a	f	7	0.1900000000000001	2	f	1	0.8981975596834673
0	54	n/a	n/a	n/a	f	7	0.2000000000000001	2	f	1	3.07228349590514
0	55	n/a	n/a	n/a	f	7	0.2100000000000001	2	f	1	0.7650082193467824
0	56	n/a	n/a	n/a	j	7	0.2200000000000001	1	j	1	1.377132311811692
0	57	n/a	n/a	n/a	f	7	0.2100000000000001	1	j	0	1.246911401542093
0	58	n/a	n/a	n/a	f	7	0.2200000000000001	2	f	1	1.538801703055469
0	59	n/a	n/a	n/a	f	7	0.2300000000000001	2	f	1	0.6798309260693713
0	60	n/a	n/a	n/a	f	7	0.2400000000000001	1	f	1	5.349578255993038
0	61	n/a	n/a	n/a	f	7	0.2300000000000001	2	f	1	1.138053665520601
0	62	n/a	n/a	n/a	j	7	0.2400000000000001	2	f	0	1.11927489566915
0	63	n/a	n/a	n/a	f	7	0.2500000000000001	2	f	1	4.09016649095156
0	64	n/a	n/a	n/a	f	7	0.2600000000000001	2	f	1	1.173022809471149
0	65	n/a	n/a	n/a	f	7	0.2700000000000001	2	f	1	0.9709697118641998
0	66	n/a	n/a	n/a	f	7	0.2800000000000001	2	j	0	2.405908293414541
0	67	n/a	n/a	n/a	f	7	0.2900000000000001	2	f	1	8.625597777155235
0	68	n/a	n/a	n/a	j	7	0.3000000000000002	2	f	0	0.695233292031844
0	69	n/a	n/a	n/a	f	7	0.3100000000000002	1	f	1	0.7172202585379637
0	70	n/a	n/a	n/a	f	7	0.3000000000000002	1	j	0	1.121218972180031
0	71	n/a	n/a	n/a	f	7	0.2900000000000001	1	j	0	1.006099650528085
1	0	j	0	0.08519810535926808	j	4	0.1	2	j	1	1.101206587564775
1	1	n/a	n/a	n/a	j	4	0.11	2	j	1	0.3960601873995984
1	2	n/a	n/a	n/a	f	4	0.12	2	j	0	0.3771918970869592
1	3	n/a	n/a	n/a	j	4	0.11	2	f	0	0.4848365453317456
1	4	n/a	n/a	n/a	j	4	0.1	2	f	0	0.4110522987657532
1	5	n/a	n/a	n/a	j	4	0.09000000000000001	2	f	0	0.3927530620840116
1	6	n/a	n/a	n/a	j	4	0.08000000000000002	1	j	1	0.7897449465135651
1	7	n/a	n/a	n/a	j	4	0.07000000000000002	2	j	1	0.3956627621682856
1	8	n/a	n/a	n/a	f	4	0.08000000000000002	2	j	0	0.3607705944104964
1	9	n/a	n/a	n/a	j	4	0.07000000000000002	2	f	0	0.6650757303186765
1	10	n/a	n/a	n/a	j	4	0.06000000000000002	2	f	0	0.404838609433682
1	11	n/a	n/a	n/a	j	4	0.07000000000000002	2	f	0	0.3851136026059976
1	12	n/a	n/a	n/a	j	4	0.06000000000000002	1	j	1	0.6066736078282702
1	13	n/a	n/a	n/a	j	4	0.05000000000000002	2	j	1	0.3707532662137965
1	14	n/a	n/a	n/a	f	4	0.06000000000000002	2	j	0	0.391990142485156
1	15	n/a	n/a	n/a	j	4	0.05000000000000002	2	f	0	0.5557356101562618
1	16	n/a	n/a	n/a	j	4	0.04000000000000001	2	f	0	0.920871324885411
1	17	n/a	n/a	n/a	j	4	0.05000000000000002	2	f	0	0.4408073035010602
1	18	n/a	n/a	n/a	j	4	0.06000000000000002	1	j	1	0.8156893446139293
1	19	n/a	n/a	n/a	j	4	0.05000000000000002	2	j	1	0.3955264857977454
1	20	n/a	n/a	n/a	f	4	0.06000000000000002	2	j	0	0.353556214573473
1	21	n/a	n/a	n/a	j	4	0.05000000000000002	2	f	0	0.5742489546919387
1	22	n/a	n/a	n/a	j	4	0.04000000000000001	2	f	0	0.4195242415144094
1	23	n/a	n/a	n/a	j	4	0.05000000000000002	2	f	0	0.3741778514977341
1	24	n/a	n/a	n/a	j	4	0.04000000000000001	1	j	1	0.6743157244118265
1	25	n/a	n/a	n/a	j	4	0.03000000000000001	2	j	1	0.40456805237136
1	26	n/a	n/a	n/a	f	4	0.04000000000000001	2	j	0	0.3893826452322173
1	27	n/a	n/a	n/a	j	4	0.03000000000000001	2	f	0	0.4893533372596721
1	28	n/a	n/a	n/a	j	4	0.02000000000000001	2	f	0	0.3933306686267315
1	29	n/a	n/a	n/a	j	4	0.03000000000000001	2	f	0	0.399468807251651
1	30	n/a	n/a	n/a	j	4	0.02000000000000001	1	j	1	0.7220426744606812
1	31	n/a	n/a	n/a	j	4	0.01000000000000001	2	j	1	0.3782088381212816
1	32	n/a	n/a	n/a	f	4	0.02000000000000001	2	j	0	0.3807901064501493
1	33	n/a	n/a	n/a	j	4	0.01000000000000001	2	f	0	0.5283172605149957
1	34	n/a	n/a	n/a	j	4	1.040834085586084e-17	2	f	0	0.4131212477668669
1	35	n/a	n/a	n/a	j	4	0.01000000000000001	2	f	0	0.3870958821162276
1	36	n/a	n/a	n/a	j	4	0.02000000000000001	1	j	1	0.7282435344277474
1	37	n/a	n/a	n/a	j	4	0.01000000000000001	2	j	1	0.4109984154310951
1	38	n/a	n/a	n/a	f	4	0.02000000000000001	2	j	0	0.3900754309670447
1	39	n/a	n/a	n/a	j	4	0.03000000000000001	2	f	0	0.7470408355857217
1	40	n/a	n/a	n/a	j	4	0.02000000000000001	2	f	0	0.4545298778812139
1	41	n/a	n/a	n/a	j	4	0.03000000000000001	2	f	0	0.4017966243372939
1	42	n/a	n/a	n/a	j	4	0.04000000000000001	1	j	1	0.7428393609498016
1	43	n/a	n/a	n/a	j	4	0.03000000000000001	2	j	1	0.4575801307910297
1	44	n/a	n/a	n/a	f	4	0.04000000000000001	2	j	0	0.3747950865245002
1	45	n/a	n/a	n/a	j	4	0.05000000000000002	2	f	0	0.6757318012596443
1	46	n/a	n/a	n/a	j	4	0.04000000000000001	2	f	0	0.4198298655082908
1	47	n/a	n/a	n/a	j	4	0.05000000000000002	2	f	0	0.4079624173718912
1	48	n/a	n/a	n/a	j	4	0.04000000000000001	1	j	1	0.7897934130050999
1	49	n/a	n/a	n/a	j	4	0.03000000000000001	2	j	1	0.3704222685846617
1	50	n/a	n/a	n/a	f	4	0.04000000000000001	2	j	0	0.3918401814580648
1	51	n/a	n/a	n/a	j	4	0.03000000000000001	2	f	0	0.8056282711313543
1	52	n/a	n/a	n/a	j	4	0.02000000000000001	2	f	0	0.4176411757634924
1	53	n/a	n/a	n/a	j	4	0.03000000000000001	2	j	1	0.4683146034094534
1	54	n/a	n/a	n/a	j	4	0.04000000000000001	2	j	1	0.9065069971356934
1	55	n/a	n/a	n/a	j	4	0.05000000000000002	2	j	1	0.4406553467952108
1	56	n/a	n/a	n/a	f	4	0.06000000000000002	1	f	1	0.4669096453453676
1	57	n/a	n/a	n/a	j	4	0.05000000000000002	2	j	1	0.8329351478432727
1	58	n/a	n/a	n/a	j	4	0.06000000000000002	2	j	1	0.4383483417896059
1	59	n/a	n/a	n/a	j	4	0.07000000000000002	2	f	0	0.4989779272191299
1	60	n/a	n/a	n/a	j	4	0.06000000000000002	2	j	1	0.8653235936590136
1	61	n/a	n/a	n/a	j	4	0.07000000000000002	2	j	1	0.4442213401953268
1	62	n/a	n/a	n/a	f	4	0.08000000000000002	2	j	0	0.4493097516287889
1	63	n/a	n/a	n/a	j	4	0.07000000000000002	1	j	1	0.9422955098934835
1	64	n/a	n/a	n/a	j	4	0.06000000000000002	2	j	1	0.5151899686898105
1	65	n/a	n/a	n/a	j	4	0.07000000000000002	2	f	0	0.4732561898836138
1	66	n/a	n/a	n/a	j	4	0.08000000000000002	2	j	1	1.005091832597827
1	67	n/a	n/a	n/a	j	4	0.09000000000000001	2	j	1	0.4508016642821531
1	68	n/a	n/a	n/a	f	4	0.1	1	f	1	0.4731920430558603
1	69	n/a	n/a	n/a	j	4	0.09000000000000001	1	j	1	0.7650022323095982
1	70	n/a	n/a	n/a	j	4	0.08000000000000002	2	j	1	0.4578900312408223
1	71	n/a	n/a	n/a	j	4	0.09000000000000001	2	f	0	0.4630232029048784
2	0	f	1	2.919697010301206	f	5	0.1	2	j	0	0.6500933122515562
2	1	n/a	n/a	n/a	j	5	0.11	2	f	0	0.6311144042983869
2	2	n/a	n/a	n/a	f	5	0.1	1	f	1	0.5959300121048727
2	3	n/a	n/a	n/a	f	5	0.09000000000000001	1	f	1	0.6498247508679924
2	4	n/a	n/a	n/a	f	5	0.08000000000000002	1	j	0	0.7268776346527375
2	5	n/a	n/a	n/a	j	5	0.07000000000000002	2	j	1	0.740724796426548
2	6	n/a	n/a	n/a	f	5	0.08000000000000002	2	f	1	0.6075978923354342
2	7	n/a	n/a	n/a	f	5	0.09000000000000001	1	f	1	0.6857751987272422
2	8	n/a	n/a	n/a	f	5	0.08000000000000002	2	f	1	0.7546956903024693
2	9	n/a	n/a	n/a	j	5	0.09000000000000001	2	j	1	0.6867066106588027
2	10	n/a	n/a	n/a	f	5	0.1	2	j	0	0.6426043839937847
2	11	n/a	n/a	n/a	f	5	0.11	1	f	1	0.6945593227010249
2	12	n/a	n/a	n/a	f	5	0.1	2	f	1	0.7395804170282645
2	13	n/a	n/a	n/a	j	5	0.11	2	j	1	0.6162679775043216
2	14	n/a	n/a	n/a	f	5	0.12	2	j	0	0.6764938655678634
2	15	n/a	n/a	n/a	f	5	0.11	1	f	1	0.6726011509936143
2	16	n/a	n/a	n/a	f	5	0.1	1	f	1	0.7984067638690249
2	17	n/a	n/a	n/a	j	5	0.09000000000000001	2	j	1	0.7013303766880199
2	18	n/a	n/a	n/a	f	5	0.1	2	f	1	0.6253486023697405
2	19	n/a	n/a	n/a	f	5	0.11	1	f	1	0.6699486084125965
2	20	n/a	n/a	n/a	f	5	0.1	1	f	1	0.7212472538030852
2	21	n/a	n/a	n/a	j	5	0.09000000000000001	2	j	1	0.7422201302433677
2	22	n/a	n/a	n/a	f	5	0.1	2	f	1	0.6901297704571334
2	23	n/a	n/a	n/a	f	5	0.11	1	f	1	0.6739536512086488
2	24	n/a	n/a	n/a	f	5	0.1	1	f	1	0.6705826641627937
2	25	n/a	n/a	n/a	j	5	0.09000000000000001	1	j	1	0.73096393009655
2	26	n/a	n/a	n/a	f	5	0.08000000000000002	2	f	1	0.6571066986962251
2	27	n/a	n/a	n/a	f	5	0.09000000000000001	1	f	1	0.6306380071946478
2	28	n/a	n/a	n/a	f	5	0.08000000000000002	1	f	1	0.7336221746172669
2	29	n/a	n/a	n/a	j	5	0.07000000000000002	2	j	1	0.6916995145938927
2	30	n/a	n/a	n/a	f	5	0.08000000000000002	2	f	1	0.5380593104418949
2	31	n/a	n/a	n/a	f	5	0.09000000000000001	1	f	1	0.6948284542777401
2	32	n/a	n/a	n/a	f	5	0.08000000000000002	2	f	1	0.7396776351088192
2	33	n/a	n/a	n/a	j	5	0.09000000000000001	2	f	0	1.849235569387929
2	34	n/a	n/a	n/a	f	5	0.1	2	j	0	0.6247861059682691
2	35	n/a	n/a	n/a	f	5	0.11	1	f	1	0.603588287986895
2	36	n/a	n/a	n/a	f	5	0.1	1	f	1	0.6175560457959364
2	37	n/a	n/a	n/a	j	5	0.09000000000000001	1	f	0	0.6445116829900144
2	38	n/a	n/a	n/a	f	5	0.08000000000000002	1	j	0	0.65848229176936
2	39	n/a	n/a	n/a	f	5	0.07000000000000002	1	j	0	0.6304381541904149
2	40	n/a	n/a	n/a	f	5	0.06000000000000002	1	f	1	0.7403920882152306
2	41	n/a	n/a	n/a	j	5	0.05000000000000002	2	j	1	0.6823158316083209
2	42	n/a	n/a	n/a	f	5	0.06000000000000002	2	f	1	0.6660538981604986
2	43	n/a	n/a	n/a	f	5	0.07000000000000002	2	f	1	0.6393092327525665
2	44	n/a	n/a	n/a	f	5	0.08000000000000002	1	f	1	0.7248976359187509
2	45	n/a	n/a	n/a	j	5	0.07000000000000002	2	j	1	0.7280354136100868
2	46	n/a	n/a	n/a	f	5	0.08000000000000002	2	f	1	0.6451845119336213
2	47	n/a	n/a	n/a	f	5	0.09000000000000001	1	f	1	0.6322582135026096
2	48	n/a	n/a	n/a	f	5	0.08000000000000002	1	f	1	0.6830824574681174
2	49	n/a	n/a	n/a	j	5	0.07000000000000002	2	j	1	0.6350598618191725
2	50	n/a	n/a	n/a	f	5	0.08000000000000002	1	f	1	0.6958861641851399
2	51	n/a	n/a	n/a	f	5	0.07000000000000002	2	f	1	0.6048672331735361
2	52	n/a	n/a	n/a	f	5	0.08000000000000002	1	f	1	0.7050300805858569
2	53	n/a	n/a	n/a	j	5	0.07000000000000002	2	j	1	0.5488356923215179
2	54	n/a	n/a	n/a	f	5	0.08000000000000002	1	f	1	0.6166890657887052
2	55	n/a	n/a	n/a	f	5	0.07000000000000002	1	f	1	0.6277690759834513
2	56	n/a	n/a	n/a	f	5	0.06000000000000002	1	f	1	0.7058172334300252
2	57	n/a	n/a	n/a	j	5	0.05000000000000002	2	j	1	0.5619102411983476
2	58	n/a	n/a	n/a	f	5	0.06000000000000002	1	f	1	0.6877018843206315
2	59	n/a	n/a	n/a	f	5	0.05000000000000002	2	f	1	0.643279493713635
2	60	n/a	n/a	n/a	f	5	0.06000000000000002	2	f	1	0.6807503639265633
2	61	n/a	n/a	n/a	j	5	0.07000000000000002	2	j	1	0.7095571360059694
2	62	n/a	n/a	n/a	f	5	0.08000000000000002	2	f	1	0.7215001348504302
2	63	n/a	n/a	n/a	f	5	0.09000000000000001	2	f	1	0.6544493094661448
2	64	n/a	n/a	n/a	f	5	0.1	1	f	1	0.7321604822473091
2	65	n/a	n/a	n/a	j	5	0.09000000000000001	2	j	1	0.8354514140519314
2	66	n/a	n/a	n/a	f	5	0.1	2	f	1	0.6953345014708248
2	67	n/a	n/a	n/a	f	5	0.11	1	f	1	0.6759513259576124
2	68	n/a	n/a	n/a	f	5	0.1	1	f	1	0.8073274493117424
2	69	n/a	n/a	n/a	j	5	0.09000000000000001	2	j	1	0.6102592729230309
2	70	n/a	n/a	n/a	f	5	0.1	1	f	1	0.6731613666188423
2	71	n/a	n/a	n/a	f	5	0.09000000000000001	1	f	1	0.6472004328916228
3	0	f	1	1.634265866646274	f	11	0.1	1	j	0	0.7943486930298604
3	1	n/a	n/a	n/a	f	11	0.11	0	f	1	0.9357311512385422
3	2	n/a	n/a	n/a	j	11	0.12	0	f	0	0.7885717723174821
3	3	n/a	n/a	n/a	f	11	0.11	0	f	1	0.7705162935790213
3	4	n/a	n/a	n/a	f	11	0.12	0	f	1	1.024370092411118
3	5	n/a	n/a	n/a	f	11	0.13	0	j	0	0.9253145617858536
3	6	n/a	n/a	n/a	f	11	0.12	1	f	1	0.8349162869644715
3	7	n/a	n/a	n/a	f	11	0.11	0	f	1	0.8543054495157776
3	8	n/a	n/a	n/a	j	11	0.12	0	f	0	0.8352795005557709
3	9	n/a	n/a	n/a	f	11	0.13	0	f	1	1.487185174499245
3	10	n/a	n/a	n/a	f	11	0.14	2	f	1	0.8601245645859308
3	11	n/a	n/a	n/a	f	11	0.15	2	j	0	0.7362014472664669
3	12	n/a	n/a	n/a	f	11	0.14	0	f	1	0.8291097161636571
3	13	n/a	n/a	n/a	f	11	0.15	0	f	1	0.7229709503253616
3	14	n/a	n/a	n/a	j	11	0.16	0	f	0	0.7851132604891973
3	15	n/a	n/a	n/a	f	11	0.17	0	f	1	2.189055524922878
3	16	n/a	n/a	n/a	f	11	0.18	2	f	1	0.6826833216537125
3	17	n/a	n/a	n/a	f	11	0.1900000000000001	0	f	1	0.729308086662968
3	18	n/a	n/a	n/a	f	11	0.2000000000000001	0	j	0	0.774660463715918
3	19	n/a	n/a	n/a	f	11	0.2100000000000001	0	f	1	0.7875345893944541
3	20	n/a	n/a	n/a	j	11	0.2200000000000001	0	f	0	0.8087540747492312
3	21	n/a	n/a	n/a	f	11	0.2100000000000001	1	f	1	1.453196194069278
3	22	n/a	n/a	n/a	f	11	0.2000000000000001	2	f	1	0.7144485454064124
3	23	n/a	n/a	n/a	f	11	0.2100000000000001	2	j	0	0.6485512225244747
3	24	n/a	n/a	n/a	f	11	0.2200000000000001	0	f	1	0.7244021373153373
3	25	n/a	n/a	n/a	f	11	0.2300000000000001	0	f	1	0.7133432242981144
3	26	n/a	n/a	n/a	j	11	0.2400000000000001	0	f	0	0.6552854989968182
3	27	n/a	n/a	n/a	f	11	0.2500000000000001	0	f	1	1.083266573116816
3	28	n/a	n/a	n/a	f	11	0.2600000000000001	1	f	1	0.7600615011269838
3	29	n/a	n/a	n/a	f	11	0.2500000000000001	1	f	1	0.6253018464594788
3	30	n/a	n/a	n/a	f	11	0.2400000000000001	1	j	0	0.7421083722156254
3	31	n/a	n/a	n/a	f	11	0.2500000000000001	1	f	1	0.825737873826256
3	32	n/a	n/a	n/a	j	11	0.2400000000000001	1	f	0	0.7622724284392461
3	33	n/a	n/a	n/a	f	11	0.2300000000000001	1	f	1	1.317697282855079
3	34	n/a	n/a	n/a	f	11	0.2200000000000001	2	f	1	0.6918648708597175
3	35	n/a	n/a	n/a	f	11	0.2300000000000001	0	f	1	0.7600101836651447
3	36	n/a	n/a	n/a	f	11	0.2400000000000001	1	f	1	0.769033789128116
3	37	n/a	n/a	n/a	f	11	0.2300000000000001	1	j	0	0.8047823883034653
3	38	n/a	n/a	n/a	j	11	0.2200000000000001	1	f	0	0.7768850756847314
3	39	n/a	n/a	n/a	f	11	0.2100000000000001	0	f	1	0.7417003983946415
3	40	n/a	n/a	n/a	f	11	0.2200000000000001	0	f	1	1.521487761640856
3	41	n/a	n/a	n/a	f	11	0.2300000000000001	2	f	1	0.8015254400615959
3	42	n/a	n/a	n/a	f	11	0.2400000000000001	1	f	1	0.7735317646538533
3	43	n/a	n/a	n/a	f	11	0.2300000000000001	1	f	1	2.6101774500803
3	44	n/a	n/a	n/a	j	11	0.2200000000000001	1	f	0	0.691313493241978
3	45	n/a	n/a	n/a	f	11	0.2300000000000001	0	f	1	2.326999713191981
3	46	n/a	n/a	n/a	f	11	0.2400000000000001	2	f	1	0.7411775304790353
3	47	n/a	n/a	n/a	f	11	0.2500000000000001	1	f	1	0.6751214085616084
3	48	n/a	n/a	n/a	f	11	0.2400000000000001	1	j	0	0.6980731433477558
3	49	n/a	n/a	n/a	f	11	0.2500000000000001	0	f	1	0.7842129241316798
3	50	n/a	n/a	n/a	j	11	0.2600000000000001	0	f	0	0.7889683422572489
3	51	n/a	n/a	n/a	f	11	0.2500000000000001	1	f	1	0.8917118878034671
3	52	n/a	n/a	n/a	f	11	0.2400000000000001	1	f	1	0.7218784585829781
3	53	n/a	n/a	n/a	f	11	0.2300000000000001	0	f	1	0.7588826249912017
3	54	n/a	n/a	n/a	f	11	0.2400000000000001	1	f	1	0.7724569489264468
3	55	n/a	n/a	n/a	f	11	0.2300000000000001	1	j	0	0.8177996326812718
3	56	n/a	n/a	n/a	j	11	0.2200000000000001	1	f	0	0.7502598659248179
3	57	n/a	n/a	n/a	f	11	0.2100000000000001	0	f	1	0.803630311285815
3	58	n/a	n/a	n/a	f	11	0.2200000000000001	1	f	1	0.7686625928208741
3	59	n/a	n/a	n/a	f	11	0.2100000000000001	0	f	1	0.748558692066581
3	60	n/a	n/a	n/a	f	11	0.2200000000000001	0	f	1	0.7155601386484705
3	61	n/a	n/a	n/a	f	11	0.2300000000000001	0	f	1	0.7544624809479501
3	62	n/a	n/a	n/a	j	11	0.2400000000000001	0	f	0	0.8002955315605504
3	63	n/a	n/a	n/a	f	11	0.2300000000000001	1	f	1	0.9034211071002574
3	64	n/a	n/a	n/a	f	11	0.2200000000000001	1	f	1	0.8521039304041551
3	65	n/a	n/a	n/a	f	11	0.2100000000000001	1	f	1	0.7579132951568681
3	66	n/a	n/a	n/a	f	11	0.2000000000000001	0	f	1	0.7622533269395717
3	67	n/a	n/a	n/a	f	11	0.2100000000000001	0	j	0	0.7523778516115271
3	68	n/a	n/a	n/a	j	11	0.2200000000000001	0	f	0	0.8212242179642999
3	69	n/a	n/a	n/a	f	11	0.2300000000000001	1	f	1	0.8096837760976996
3	70	n/a	n/a	n/a	f	11	0.2200000000000001	1	f	1	0.7990815884922995
3	71	n/a	n/a	n/a	f	11	0.2100000000000001	1	f	1	0.7470151768538926
4	0	f	1	2.393379135118266	f	9	0.1	1	j	0	0.8020349084181362
4	1	n/a	n/a	n/a	j	9	0.11	1	f	0	0.836648821495146
4	2	n/a	n/a	n/a	f	9	0.12	0	f	1	0.8816037733158737
4	3	n/a	n/a	n/a	f	9	0.13	1	f	1	1.02178255194849
4	4	n/a	n/a	n/a	f	9	0.12	1	f	1	1.058526709883154
4	5	n/a	n/a	n/a	j	9	0.11	1	f	0	0.9576380054841138
4	6	n/a	n/a	n/a	f	9	0.1	1	j	0	0.9071561630280485
4	7	n/a	n/a	n/a	f	9	0.09000000000000002	1	f	1	0.9111173008841433
4	8	n/a	n/a	n/a	f	9	0.08000000000000003	1	f	1	0.9474703057203442
4	9	n/a	n/a	n/a	j	9	0.07000000000000003	1	j	1	0.9433706107174658
4	10	n/a	n/a	n/a	f	9	0.06000000000000003	1	f	1	0.9151571255151794
4	11	n/a	n/a	n/a	f	9	0.05000000000000003	0	f	1	0.8792865048189924
4	12	n/a	n/a	n/a	f	9	0.06000000000000003	0	f	1	0.9739144788791236
4	13	n/a	n/a	n/a	j	9	0.07000000000000003	1	j	1	0.9081092423321024
4	14	n/a	n/a	n/a	f	9	0.06000000000000003	0	f	1	0.9220798511114481
4	15	n/a	n/a	n/a	f	9	0.07000000000000003	1	f	1	0.8138846805395588
4	16	n/a	n/a	n/a	f	9	0.06000000000000003	0	f	1	0.9230038505202174
4	17	n/a	n/a	n/a	j	9	0.07000000000000003	1	j	1	0.8330794069297554
4	18	n/a	n/a	n/a	f	9	0.06000000000000003	0	f	1	0.8368843116249991
4	19	n/a	n/a	n/a	f	9	0.07000000000000003	0	f	1	0.8170010759567958
4	20	n/a	n/a	n/a	f	9	0.08000000000000003	0	f	1	0.8938264523267208
4	21	n/a	n/a	n/a	j	9	0.09000000000000002	0	j	1	0.7387912685044284
4	22	n/a	n/a	n/a	f	9	0.1	0	f	1	0.6872106621713101
4	23	n/a	n/a	n/a	f	9	0.11	0	f	1	0.7966802163773536
4	24	n/a	n/a	n/a	f	9	0.12	0	f	1	1.0825549709798
4	25	n/a	n/a	n/a	j	9	0.13	1	j	1	1.144692434494573
4	26	n/a	n/a	n/a	f	9	0.12	2	f	1	0.9014818772384388
4	27	n/a	n/a	n/a	f	9	0.13	1	f	1	0.9454826093679003
4	28	n/a	n/a	n/a	f	9	0.12	1	f	1	0.8645578230907631
4	29	n/a	n/a	n/a	j	9	0.11	0	j	1	0.9525538705056533
4	30	n/a	n/a	n/a	f	9	0.12	1	f	1	0.8593208761149072
4	31	n/a	n/a	n/a	f	9	0.11	0	f	1	0.8819766802052982
4	32	n/a	n/a	n/a	f	9	0.12	1	f	1	0.9258693605679582
4	33	n/a	n/a	n/a	j	9	0.11	1	j	1	0.9071829621470897
4	34	n/a	n/a	n/a	f	9	0.1	1	f	1	0.810134229374853
4	35	n/a	n/a	n/a	f	9	0.09000000000000002	0	f	1	0.8651978658781445
4	36	n/a	n/a	n/a	f	9	0.1	0	f	1	0.9050758101457177
4	37	n/a	n/a	n/a	j	9	0.11	1	j	1	0.9761445076910604
4	38	n/a	n/a	n/a	f	9	0.1	1	f	1	0.9667984575107766
4	39	n/a	n/a	n/a	f	9	0.09000000000000002	1	f	1	0.9859398707594664
4	40	n/a	n/a	n/a	f	9	0.08000000000000003	1	f	1	0.9896281707779053
4	41	n/a	n/a	n/a	j	9	0.07000000000000003	1	j	1	0.9157019459007643
4	42	n/a	n/a	n/a	f	9	0.06000000000000003	0	f	1	0.7612999625380326
4	43	n/a	n/a	n/a	f	9	0.07000000000000003	0	f	1	0.9116085230325552
4	44	n/a	n/a	n/a	f	9	0.08000000000000003	1	f	1	0.9675662237596043
4	45	n/a	n/a	n/a	j	9	0.07000000000000003	1	j	1	1.030442943820162
4	46	n/a	n/a	n/a	f	9	0.06000000000000003	1	f	1	0.8601907070924426
4	47	n/a	n/a	n/a	f	9	0.05000000000000003	0	f	1	0.928563527310871
4	48	n/a	n/a	n/a	f	9	0.06000000000000003	1	f	1	1.029349026593991
4	49	n/a	n/a	n/a	j	9	0.05000000000000003	1	j	1	0.9552583007416615
4	50	n/a	n/a	n/a	f	9	0.04000000000000003	1	f	1	0.942169782111705
4	51	n/a	n/a	n/a	f	9	0.03000000000000003	0	f	1	1.045083530572811
4	52	n/a	n/a	n/a	f	9	0.04000000000000003	2	f	1	0.9780743293522391
4	53	n/a	n/a	n/a	j	9	0.05000000000000003	1	j	1	0.905206669674044
4	54	n/a	n/a	n/a	f	9	0.04000000000000003	0	f	1	0.9570398719570221
4	55	n/a	n/a	n/a	f	9	0.05000000000000003	1	f	1	0.8339329873779207
4	56	n/a	n/a	n/a	f	9	0.04000000000000003	0	f	1	1.0160201711833
4	57	n/a	n/a	n/a	j	9	0.05000000000000003	1	j	1	1.062883847486773
4	58	n/a	n/a	n/a	f	9	0.04000000000000003	2	f	1	0.8204678555975988
4	59	n/a	n/a	n/a	f	9	0.05000000000000003	0	f	1	0.82577636192309
4	60	n/a	n/a	n/a	f	9	0.06000000000000003	0	f	1	0.9736584617648987
4	61	n/a	n/a	n/a	j	9	0.07000000000000003	1	j	1	0.9776569473297059
4	62	n/a	n/a	n/a	f	9	0.06000000000000003	1	f	1	0.9447598884471518
4	63	n/a	n/a	n/a	f	9	0.05000000000000003	1	f	1	0.8924423063435825
4	64	n/a	n/a	n/a	f	9	0.04000000000000003	0	f	1	0.9854549207466334
4	65	n/a	n/a	n/a	j	9	0.05000000000000003	1	j	1	0.9241510808878957
4	66	n/a	n/a	n/a	f	9	0.04000000000000003	0	f	1	0.8983500865833776
4	67	n/a	n/a	n/a	f	9	0.05000000000000003	0	f	1	0.9552970739359807
4	68	n/a	n/a	n/a	f	9	0.06000000000000003	1	f	1	0.8412853541676668
4	69	n/a	n/a	n/a	j	9	0.05000000000000003	0	j	1	0.8469892900457126
4	70	n/a	n/a	n/a	f	9	0.06000000000000003	0	f	1	0.8061434414294126
4	71	n/a	n/a	n/a	f	9	0.07000000000000003	0	f	1	0.7311358435936199
5	0	j	1	0.1334778585114691	j	6	0.1	2	j	1	0.7826200871377296
5	1	n/a	n/a	n/a	f	6	0.11	2	f	1	0.7129204254333672
5	2	n/a	n/a	n/a	j	6	0.12	2	j	1	0.6778366724838634
5	3	n/a	n/a	n/a	j	6	0.13	1	j	1	0.6748209163124557
5	4	n/a	n/a	n/a	j	6	0.12	1	j	1	0.6729700665246128
5	5	n/a	n/a	n/a	f	6	0.11	1	f	1	0.7337037123625123
5	6	n/a	n/a	n/a	j	6	0.1	2	j	1	0.707748765672477
5	7	n/a	n/a	n/a	j	6	0.11	2	j	1	0.6907073769989438
5	8	n/a	n/a	n/a	j	6	0.12	1	j	1	0.694623469527869
5	9	n/a	n/a	n/a	f	6	0.11	1	f	1	0.6916758515426409
5	10	n/a	n/a	n/a	j	6	0.1	2	j	1	0.6026232346075631
5	11	n/a	n/a	n/a	j	6	0.11	1	j	1	0.6955571622356729
5	12	n/a	n/a	n/a	j	6	0.1	2	j	1	0.6844837092712623
5	13	n/a	n/a	n/a	f	6	0.11	1	f	1	0.6664413449962012
5	14	n/a	n/a	n/a	j	6	0.1	1	j	1	0.5583445328938978
5	15	n/a	n/a	n/a	j	6	0.09000000000000002	1	j	1	0.7143792668330207
5	16	n/a	n/a	n/a	j	6	0.08000000000000003	2	j	1	0.6713142230910307
5	17	n/a	n/a	n/a	f	6	0.09000000000000002	1	f	1	0.7233213345507465
5	18	n/a	n/a	n/a	j	6	0.08000000000000003	2	j	1	0.6472166834209929
5	19	n/a	n/a	n/a	j	6	0.09000000000000002	1	j	1	0.66910757223377
5	20	n/a	n/a	n/a	j	6	0.08000000000000003	2	j	1	0.6173074412026835
5	21	n/a	n/a	n/a	f	6	0.09000000000000002	1	f	1	0.6552766609893297
5	22	n/a	n/a	n/a	j	6	0.08000000000000003	1	j	1	0.6530474874689389
5	23	n/a	n/a	n/a	j	6	0.07000000000000003	1	j	1	0.6261882130629601
5	24	n/a	n/a	n/a	j	6	0.06000000000000003	1	j	1	0.7365538271715195
5	25	n/a	n/a	n/a	f	6	0.05000000000000003	2	f	1	0.6638218736688941
5	26	n/a	n/a	n/a	j	6	0.06000000000000003	2	j	1	0.5550046214229951
5	27	n/a	n/a	n/a	j	6	0.07000000000000003	1	j	1	0.7177972948848037
5	28	n/a	n/a	n/a	j	6	0.06000000000000003	2	j	1	0.6889950843578845
5	29	n/a	n/a	n/a	f	6	0.07000000000000003	2	f	1	0.6528345200022159
5	30	n/a	n/a	n/a	j	6	0.08000000000000003	1	j	1	0.6337447093119408
5	31	n/a	n/a	n/a	j	6	0.07000000000000003	1	j	1	0.6377397737123829
5	32	n/a	n/a	n/a	j	6	0.06000000000000003	1	j	1	0.6906569148286508
5	33	n/a	n/a	n/a	f	6	0.05000000000000003	2	f	1	0.575276159218447
5	34	n/a	n/a	n/a	j	6	0.06000000000000003	1	j	1	0.6215930194566681
5	35	n/a	n/a	n/a	j	6	0.05000000000000003	1	j	1	0.6653049483147697
5	36	n/a	n/a	n/a	j	6	0.04000000000000003	2	j	1	0.6795438333792845
5	37	n/a	n/a	n/a	f	6	0.05000000000000003	2	f	1	0.5401040261967864
5	38	n/a	n/a	n/a	j	6	0.06000000000000003	1	j	1	0.5134802419215703
5	39	n/a	n/a	n/a	j	6	0.05000000000000003	0	j	1	0.5014505735871353
5	40	n/a	n/a	n/a	j	6	0.06000000000000003	0	j	1	0.5861865366923666
5	41	n/a	n/a	n/a	f	6	0.07000000000000003	1	f	1	0.6803044722028062
5	42	n/a	n/a	n/a	j	6	0.06000000000000003	2	j	1	0.6463864809284132
5	43	n/a	n/a	n/a	j	6	0.07000000000000003	1	j	1	0.7002299022287843
5	44	n/a	n/a	n/a	j	6	0.06000000000000003	2	j	1	0.6912735796604466
5	45	n/a	n/a	n/a	f	6	0.07000000000000003	2	f	1	0.7738852849452087
5	46	n/a	n/a	n/a	j	6	0.08000000000000003	2	j	1	0.7781486256335484
5	47	n/a	n/a	n/a	j	6	0.09000000000000002	2	j	1	0.6687905443586715
5	48	n/a	n/a	n/a	j	6	0.1	1	j	1	0.6653160670985017
5	49	n/a	n/a	n/a	f	6	0.09000000000000002	1	f	1	0.5741223716195236
5	50	n/a	n/a	n/a	j	6	0.08000000000000003	1	j	1	0.5220023617439438
5	51	n/a	n/a	n/a	j	6	0.07000000000000003	1	j	1	0.593154307615805
5	52	n/a	n/a	n/a	j	6	0.06000000000000003	1	j	1	0.6559050147989183
5	53	n/a	n/a	n/a	f	6	0.05000000000000003	2	f	1	0.6218883799592732
5	54	n/a	n/a	n/a	j	6	0.06000000000000003	1	j	1	0.5699146248498437
5	55	n/a	n/a	n/a	j	6	0.05000000000000003	1	j	1	0.6448928576928665
5	56	n/a	n/a	n/a	j	6	0.04000000000000003	2	j	1	0.6010018879123891
5	57	n/a	n/a	n/a	f	6	0.05000000000000003	1	f	1	0.6377674281229702
5	58	n/a	n/a	n/a	j	6	0.04000000000000003	2	j	1	1.881570416965587
5	59	n/a	n/a	n/a	j	6	0.05000000000000003	2	j	1	0.6156205221950586
5	60	n/a	n/a	n/a	j	6	0.06000000000000003	1	j	1	0.708594648500366
5	61	n/a	n/a	n/a	f	6	0.05000000000000003	2	f	1	0.6425593386657056
5	62	n/a	n/a	n/a	j	6	0.06000000000000003	1	j	1	0.6075519917167185
5	63	n/a	n/a	n/a	j	6	0.05000000000000003	1	j	1	0.6104936226647624
5	64	n/a	n/a	n/a	j	6	0.04000000000000003	1	j	1	0.6784003092734565
5	65	n/a	n/a	n/a	f	6	0.03000000000000003	2	f	1	0.5874295596559023
5	66	n/a	n/a	n/a	j	6	0.04000000000000003	1	j	1	0.5373693756773719
5	67	n/a	n/a	n/a	j	6	0.03000000000000003	0	j	1	0.5823536924908694
5	68	n/a	n/a	n/a	j	6	0.04000000000000003	1	j	1	0.628299071325273
5	69	n/a	n/a	n/a	f	6	0.03000000000000003	2	f	1	0.5892989407502682
5	70	n/a	n/a	n/a	j	6	0.04000000000000003	1	j	1	0.6013405831599812
5	71	n/a	n/a	n/a	j	6	0.03000000000000003	1	j	1	0.5639546718566635
6	0	j	1	0.09673427076995722	j	2	0.1	2	j	1	0.6262649041582335
6	1	n/a	n/a	n/a	f	2	0.11	2	f	1	0.5122343679886399
6	2	n/a	n/a	n/a	j	2	0.12	2	j	1	0.4472513512173464
6	3	n/a	n/a	n/a	j	2	0.13	1	j	1	0.4271745346795797
6	4	n/a	n/a	n/a	j	2	0.12	1	j	1	0.3897994570615992
6	5	n/a	n/a	n/a	f	2	0.11	1	f	1	0.3708960998164912
6	6	n/a	n/a	n/a	j	2	0.1	1	j	1	0.3909612273773746
6	7	n/a	n/a	n/a	j	2	0.09000000000000002	1	j	1	0.4130397100225309
6	8	n/a	n/a	n/a	j	2	0.08000000000000003	1	j	1	0.3637450115147658
6	9	n/a	n/a	n/a	f	2	0.07000000000000003	1	f	1	0.3838628820230952
6	10	n/a	n/a	n/a	j	2	0.06000000000000003	1	j	1	0.3991187081228418
6	11	n/a	n/a	n/a	j	2	0.05000000000000003	1	j	1	0.4117636158052846
6	12	n/a	n/a	n/a	j	2	0.04000000000000003	1	j	1	0.3840898192429449
6	13	n/a	n/a	n/a	f	2	0.03000000000000003	1	f	1	0.3829465802327832
6	14	n/a	n/a	n/a	j	2	0.02000000000000002	1	j	1	0.3636381001369955
6	15	n/a	n/a	n/a	j	2	0.01000000000000002	0	j	1	0.4178715341467978
6	16	n/a	n/a	n/a	j	2	0.02000000000000002	2	j	1	0.3760210036671197
6	17	n/a	n/a	n/a	f	2	0.03000000000000003	1	f	1	0.4038615819808911
6	18	n/a	n/a	n/a	j	2	0.02000000000000002	1	j	1	0.3770396552836246
6	19	n/a	n/a	n/a	j	2	0.01000000000000002	0	j	1	0.4218372335553795
6	20	n/a	n/a	n/a	j	2	0.02000000000000002	2	j	1	0.3774784195820757
6	21	n/a	n/a	n/a	f	2	0.03000000000000003	1	f	1	0.4005396316206316
6	22	n/a	n/a	n/a	j	2	0.02000000000000002	1	j	1	0.3644452097714748
6	23	n/a	n/a	n/a	j	2	0.01000000000000002	0	j	1	0.431756613822472
6	24	n/a	n/a	n/a	j	2	0.02000000000000002	2	j	1	0.394608758522736
6	25	n/a	n/a	n/a	f	2	0.03000000000000003	1	f	1	0.3746103436615158
6	26	n/a	n/a	n/a	j	2	0.02000000000000002	1	j	1	0.4237183036266288
6	27	n/a	n/a	n/a	j	2	0.01000000000000002	2	j	1	0.4307140140581396
6	28	n/a	n/a	n/a	j	2	0.02000000000000002	2	j	1	0.4207276359920797
6	29	n/a	n/a	n/a	f	2	0.03000000000000003	2	f	1	0.4502346063300138
6	30	n/a	n/a	n/a	j	2	0.04000000000000003	2	j	1	0.3996578265687276
6	31	n/a	n/a	n/a	j	2	0.05000000000000003	1	j	1	0.4525404709465874
6	32	n/a	n/a	n/a	j	2	0.04000000000000003	2	j	1	0.4364698375911757
6	33	n/a	n/a	n/a	f	2	0.05000000000000003	2	f	1	0.4013909312925534
6	34	n/a	n/a	n/a	j	2	0.06000000000000003	1	j	1	0.3856766692006204
6	35	n/a	n/a	n/a	j	2	0.05000000000000003	1	j	1	0.4544802710015574
6	36	n/a	n/a	n/a	j	2	0.04000000000000003	2	j	1	0.4194635158501114
6	37	n/a	n/a	n/a	f	2	0.05000000000000003	1	f	1	0.4024198464012443
6	38	n/a	n/a	n/a	j	2	0.04000000000000003	1	j	1	0.4154690216437302
6	39	n/a	n/a	n/a	j	2	0.03000000000000003	1	j	1	0.4113194346637101
6	40	n/a	n/a	n/a	j	2	0.02000000000000002	2	j	1	0.4233163168437386
6	41	n/a	n/a	n/a	f	2	0.03000000000000003	2	f	1	0.4272834417361082
6	42	n/a	n/a	n/a	j	2	0.04000000000000003	1	j	1	0.4083324732901019
6	43	n/a	n/a	n/a	j	2	0.03000000000000003	1	j	1	0.4392612224155528
6	44	n/a	n/a	n/a	j	2	0.02000000000000002	2	j	1	0.4291830431138806
6	45	n/a	n/a	n/a	f	2	0.03000000000000003	2	f	1	0.4272842970276542
6	46	n/a	n/a	n/a	j	2	0.04000000000000003	1	j	1	0.4311328215653703
6	47	n/a	n/a	n/a	j	2	0.03000000000000003	2	j	1	0.4521054129090771
6	48	n/a	n/a	n/a	j	2	0.04000000000000003	2	j	1	0.3749393456109829
6	49	n/a	n/a	n/a	f	2	0.05000000000000003	1	f	1	0.2748543296829666
6	50	n/a	n/a	n/a	j	2	0.04000000000000003	0	j	1	0.4550199596415041
6	51	n/a	n/a	n/a	j	2	0.05000000000000003	2	j	1	0.4276438043571034
6	52	n/a	n/a	n/a	j	2	0.06000000000000003	1	j	1	0.4335359042624987
6	53	n/a	n/a	n/a	f	2	0.05000000000000003	2	f	1	0.4240869340610516
6	54	n/a	n/a	n/a	j	2	0.06000000000000003	1	j	1	0.4428286413021851
6	55	n/a	n/a	n/a	j	2	0.05000000000000003	2	j	1	0.4560266371836406
6	56	n/a	n/a	n/a	j	2	0.06000000000000003	2	j	1	0.4298989217068083
6	57	n/a	n/a	n/a	f	2	0.07000000000000003	1	f	1	0.4909284982404643
6	58	n/a	n/a	n/a	j	2	0.06000000000000003	2	j	1	0.4398308462414207
6	59	n/a	n/a	n/a	j	2	0.07000000000000003	1	j	1	0.427836815032606
6	60	n/a	n/a	n/a	j	2	0.06000000000000003	1	j	1	0.4249516332920393
6	61	n/a	n/a	n/a	f	2	0.05000000000000003	1	f	1	0.420755290402667
6	62	n/a	n/a	n/a	j	2	0.04000000000000003	1	j	1	0.4005644350600051
6	63	n/a	n/a	n/a	j	2	0.03000000000000003	1	j	1	1.085397673266016
6	64	n/a	n/a	n/a	j	2	0.02000000000000002	2	j	1	0.5605047129392915
6	65	n/a	n/a	n/a	f	2	0.03000000000000003	2	f	1	0.4776295780166038
6	66	n/a	n/a	n/a	j	2	0.04000000000000003	2	j	1	0.4084083090956483
6	67	n/a	n/a	n/a	j	2	0.05000000000000003	1	j	1	0.4045663417891774
6	68	n/a	n/a	n/a	j	2	0.04000000000000003	1	j	1	0.4175257114738997
6	69	n/a	n/a	n/a	f	2	0.03000000000000003	1	f	1	0.3895956126998499
6	70	n/a	n/a	n/a	j	2	0.02000000000000002	1	j	1	0.4282276830335832
6	71	n/a	n/a	n/a	j	2	0.01000000000000002	2	j	1	0.3461166080987823
7	0	j	1	0.9787386053849332	j	12	0.1	0	j	1	0.8177352007569425
7	1	n/a	n/a	n/a	j	12	0.11	0	f	0	0.7814563211422865
7	2	n/a	n/a	n/a	f	12	0.12	0	j	0	0.842597370607109
7	3	n/a	n/a	n/a	j	12	0.13	0	j	1	0.7775884100083204
7	4	n/a	n/a	n/a	j	12	0.14	0	j	1	0.7975300905636686
7	5	n/a	n/a	n/a	j	12	0.15	0	j	1	0.7474853018238719
7	6	n/a	n/a	n/a	j	12	0.16	0	j	1	0.777468669263726
7	7	n/a	n/a	n/a	j	12	0.17	0	j	1	0.7995175018204463
7	8	n/a	n/a	n/a	f	12	0.18	0	j	0	0.8193582580342991
7	9	n/a	n/a	n/a	j	12	0.1900000000000001	0	f	0	0.7361686611102414
7	10	n/a	n/a	n/a	j	12	0.18	0	j	1	0.7251815925401388
7	11	n/a	n/a	n/a	j	12	0.1900000000000001	0	j	1	0.7632548727351605
7	12	n/a	n/a	n/a	j	12	0.2000000000000001	0	j	1	0.8271185986459386
7	13	n/a	n/a	n/a	j	12	0.2100000000000001	0	f	0	0.8252543492972109
7	14	n/a	n/a	n/a	f	12	0.2000000000000001	0	j	0	0.7731106763694697
7	15	n/a	n/a	n/a	j	12	0.1900000000000001	0	j	1	0.7451637568710794
7	16	n/a	n/a	n/a	j	12	0.2000000000000001	0	j	1	0.7429722161559766
7	17	n/a	n/a	n/a	j	12	0.2100000000000001	0	j	1	0.8515633864735719
7	18	n/a	n/a	n/a	j	12	0.2200000000000001	1	j	1	0.7778683752721918
7	19	n/a	n/a	n/a	j	12	0.2100000000000001	1	f	0	0.7439526647731327
7	20	n/a	n/a	n/a	f	12	0.2000000000000001	1	j	0	0.7339146841495676
7	21	n/a	n/a	n/a	j	12	0.2100000000000001	0	j	1	0.778573705274539
7	22	n/a	n/a	n/a	j	12	0.2200000000000001	1	j	1	0.75288903055025
7	23	n/a	n/a	n/a	j	12	0.2100000000000001	0	j	1	0.7244545951652981
7	24	n/a	n/a	n/a	j	12	0.2200000000000001	0	j	1	0.8008175441864296
7	25	n/a	n/a	n/a	j	12	0.2300000000000001	1	j	1	0.8045851011720515
7	26	n/a	n/a	n/a	f	12	0.2200000000000001	1	f	1	0.7355157889569455
7	27	n/a	n/a	n/a	j	12	0.2100000000000001	0	j	1	0.7304182544194191
7	28	n/a	n/a	n/a	j	12	0.2200000000000001	0	j	1	0.775480687813797
7	29	n/a	n/a	n/a	j	12	0.2300000000000001	1	j	1	0.7394144905692883
7	30	n/a	n/a	n/a	j	12	0.2200000000000001	0	j	1	0.7673223517767838
7	31	n/a	n/a	n/a	j	12	0.2300000000000001	1	j	1	0.7330650950598283
7	32	n/a	n/a	n/a	f	12	0.2200000000000001	0	f	1	0.7232768594176378
7	33	n/a	n/a	n/a	j	12	0.2300000000000001	0	j	1	0.6564290231044652
7	34	n/a	n/a	n/a	j	12	0.2400000000000001	0	j	1	0.6762002156474409
7	35	n/a	n/a	n/a	j	12	0.2500000000000001	0	j	1	0.7843127080850536
7	36	n/a	n/a	n/a	j	12	0.2600000000000001	1	j	1	0.8447133606150601
7	37	n/a	n/a	n/a	j	12	0.2500000000000001	1	j	1	0.9292748443513119
7	38	n/a	n/a	n/a	f	12	0.2400000000000001	1	f	1	0.8840194002805219
7	39	n/a	n/a	n/a	j	12	0.2300000000000001	1	j	1	0.6971186385590045
7	40	n/a	n/a	n/a	j	12	0.2200000000000001	0	j	1	0.7657417739528682
7	41	n/a	n/a	n/a	j	12	0.2300000000000001	1	j	1	0.827849872475781
7	42	n/a	n/a	n/a	j	12	0.2200000000000001	1	j	1	0.8320627509920087
7	43	n/a	n/a	n/a	j	12	0.2100000000000001	1	j	1	0.8368221604760038
7	44	n/a	n/a	n/a	f	12	0.2000000000000001	1	f	1	0.8558589431222572
7	45	n/a	n/a	n/a	j	12	0.1900000000000001	1	j	1	0.6926594362257674
7	46	n/a	n/a	n/a	j	12	0.18	0	j	1	0.7613578372311167
7	47	n/a	n/a	n/a	j	12	0.1900000000000001	0	j	1	0.7262153542988017
7	48	n/a	n/a	n/a	j	12	0.2000000000000001	0	j	1	0.828525267292207
7	49	n/a	n/a	n/a	j	12	0.2100000000000001	1	j	1	0.7935777907141528
7	50	n/a	n/a	n/a	f	12	0.2000000000000001	1	f	1	0.8544648187435087
7	51	n/a	n/a	n/a	j	12	0.1900000000000001	1	j	1	0.7873900452104863
7	52	n/a	n/a	n/a	j	12	0.18	0	j	1	0.8554404207116022
7	53	n/a	n/a	n/a	j	12	0.1900000000000001	1	j	1	0.8439718232930318
7	54	n/a	n/a	n/a	j	12	0.18	1	j	1	0.9030393622042538
7	55	n/a	n/a	n/a	j	12	0.17	1	j	1	0.7302591702882637
7	56	n/a	n/a	n/a	f	12	0.16	0	f	1	0.7891841606942762
7	57	n/a	n/a	n/a	j	12	0.17	0	j	1	0.8021486621246368
7	58	n/a	n/a	n/a	j	12	0.18	0	j	1	0.7511448070436018
7	59	n/a	n/a	n/a	j	12	0.1900000000000001	0	j	1	0.8300750546395648
7	60	n/a	n/a	n/a	j	12	0.2000000000000001	1	j	1	0.9390528165022261
7	61	n/a	n/a	n/a	j	12	0.1900000000000001	1	j	1	0.8317953299965666
7	62	n/a	n/a	n/a	f	12	0.18	1	f	1	0.8298689295006625
7	63	n/a	n/a	n/a	j	12	0.17	1	j	1	0.7074602474986023
7	64	n/a	n/a	n/a	j	12	0.16	0	j	1	0.788009846110981
7	65	n/a	n/a	n/a	j	12	0.17	0	j	1	0.8117290620475615
7	66	n/a	n/a	n/a	j	12	0.18	1	j	1	0.8974086962571164
7	67	n/a	n/a	n/a	j	12	0.17	1	j	1	0.860706732680228
7	68	n/a	n/a	n/a	f	12	0.16	1	f	1	0.8742978773389041
7	69	n/a	n/a	n/a	j	12	0.15	1	j	1	0.7275886665956932
7	70	n/a	n/a	n/a	j	12	0.14	0	j	1	0.7563176071917042
7	71	n/a	n/a	n/a	j	12	0.15	0	j	1	0.8631038283392627
8	0	f	1	0.05111618330374768	f	3	0.1	2	f	1	0.6524627535009131
8	1	n/a	n/a	n/a	f	3	0.11	2	f	1	0.4396948549683657
8	2	n/a	n/a	n/a	j	3	0.12	1	j	1	0.4447077156946762
8	3	n/a	n/a	n/a	f	3	0.11	1	f	1	0.4276865689089391
8	4	n/a	n/a	n/a	f	3	0.1	1	f	1	0.401545453871222
8	5	n/a	n/a	n/a	f	3	0.09000000000000001	1	f	1	0.4155231900758736
8	6	n/a	n/a	n/a	f	3	0.08000000000000002	1	f	1	0.4694632592627386
8	7	n/a	n/a	n/a	f	3	0.07000000000000002	2	f	1	0.4334304183685163
8	8	n/a	n/a	n/a	j	3	0.08000000000000002	1	j	1	0.40939531494314
8	9	n/a	n/a	n/a	f	3	0.07000000000000002	1	f	1	0.4209608453465989
8	10	n/a	n/a	n/a	f	3	0.06000000000000002	1	f	1	0.4253747172551812
8	11	n/a	n/a	n/a	f	3	0.05000000000000002	1	f	1	0.4063105652958257
8	12	n/a	n/a	n/a	f	3	0.04000000000000001	1	f	1	0.3862919085477188
8	13	n/a	n/a	n/a	f	3	0.03000000000000001	1	f	1	0.4472781503354781
8	14	n/a	n/a	n/a	j	3	0.02000000000000001	2	j	1	0.4262072005240043
8	15	n/a	n/a	n/a	f	3	0.03000000000000001	2	f	1	0.4392908725048983
8	16	n/a	n/a	n/a	f	3	0.04000000000000001	2	f	1	0.4518488255998818
8	17	n/a	n/a	n/a	f	3	0.05000000000000002	2	f	1	0.3772751454134777
8	18	n/a	n/a	n/a	f	3	0.06000000000000002	1	f	1	0.5031893802506602
8	19	n/a	n/a	n/a	f	3	0.05000000000000002	2	f	1	0.4509787095257707
8	20	n/a	n/a	n/a	j	3	0.06000000000000002	2	j	1	0.3829779409043113
8	21	n/a	n/a	n/a	f	3	0.07000000000000002	1	f	1	0.437748212583756
8	22	n/a	n/a	n/a	f	3	0.06000000000000002	1	f	1	0.3851800302090851
8	23	n/a	n/a	n/a	f	3	0.05000000000000002	1	f	1	0.3990001077672787
8	24	n/a	n/a	n/a	f	3	0.04000000000000001	1	f	1	0.4349402921325236
8	25	n/a	n/a	n/a	f	3	0.03000000000000001	2	f	1	0.4401359000430602
8	26	n/a	n/a	n/a	j	3	0.04000000000000001	2	j	1	0.3979831667320468
8	27	n/a	n/a	n/a	f	3	0.05000000000000002	1	f	1	0.4359107623549789
8	28	n/a	n/a	n/a	f	3	0.04000000000000001	2	f	1	0.4089682396233911
8	29	n/a	n/a	n/a	f	3	0.05000000000000002	1	f	1	0.3809332251485102
8	30	n/a	n/a	n/a	f	3	0.04000000000000001	1	f	1	0.4829449266699157
8	31	n/a	n/a	n/a	f	3	0.03000000000000001	2	f	1	0.4418419205503596
8	32	n/a	n/a	n/a	j	3	0.04000000000000001	2	j	1	0.4155633887539807
8	33	n/a	n/a	n/a	f	3	0.05000000000000002	1	f	1	0.3867902581214366
8	34	n/a	n/a	n/a	f	3	0.04000000000000001	1	f	1	0.4238551501921393
8	35	n/a	n/a	n/a	f	3	0.03000000000000001	2	f	1	0.4110873656982221
8	36	n/a	n/a	n/a	f	3	0.04000000000000001	1	f	1	0.482698032659755
8	37	n/a	n/a	n/a	f	3	0.03000000000000001	2	f	1	0.3917056156697072
8	38	n/a	n/a	n/a	j	3	0.04000000000000001	1	j	1	0.4286382227282957
8	39	n/a	n/a	n/a	f	3	0.03000000000000001	2	f	1	0.3767343163863188
8	40	n/a	n/a	n/a	f	3	0.04000000000000001	1	f	1	0.4223504081728606
8	41	n/a	n/a	n/a	f	3	0.03000000000000001	2	f	1	0.3965534052267685
8	42	n/a	n/a	n/a	f	3	0.04000000000000001	1	f	1	0.4022302568901068
8	43	n/a	n/a	n/a	f	3	0.03000000000000001	1	f	1	0.4246656809909837
8	44	n/a	n/a	n/a	j	3	0.02000000000000001	2	j	1	0.388201773417677
8	45	n/a	n/a	n/a	f	3	0.03000000000000001	1	f	1	0.3711538275128987
8	46	n/a	n/a	n/a	f	3	0.02000000000000001	1	f	1	0.4433460923746679
8	47	n/a	n/a	n/a	f	3	0.01000000000000001	2	f	1	0.3624526667690589
8	48	n/a	n/a	n/a	f	3	0.02000000000000001	0	f	1	0.4633638938321383
8	49	n/a	n/a	n/a	f	3	0.03000000000000001	2	f	1	0.3985003327079539
8	50	n/a	n/a	n/a	j	3	0.04000000000000001	1	j	1	0.3862924787417796
8	51	n/a	n/a	n/a	f	3	0.03000000000000001	1	f	1	0.4412817049251316
8	52	n/a	n/a	n/a	f	3	0.02000000000000001	2	f	1	0.4072753335776724
8	53	n/a	n/a	n/a	f	3	0.03000000000000001	1	f	1	0.3552300191186077
8	54	n/a	n/a	n/a	f	3	0.02000000000000001	0	f	1	0.4622554366578697
8	55	n/a	n/a	n/a	f	3	0.03000000000000001	2	f	1	0.3938743486251042
8	56	n/a	n/a	n/a	j	3	0.04000000000000001	1	j	1	0.3614351555397661
8	57	n/a	n/a	n/a	f	3	0.03000000000000001	1	f	1	0.4392113304393206
8	58	n/a	n/a	n/a	f	3	0.02000000000000001	2	f	1	0.379130556754717
8	59	n/a	n/a	n/a	f	3	0.03000000000000001	1	f	1	0.3843113396196713
8	60	n/a	n/a	n/a	f	3	0.02000000000000001	1	f	1	0.483768857029645
8	61	n/a	n/a	n/a	f	3	0.01000000000000001	2	f	1	0.3831364548414058
8	62	n/a	n/a	n/a	j	3	0.02000000000000001	1	j	1	0.4370340445748297
8	63	n/a	n/a	n/a	f	3	0.01000000000000001	2	f	1	0.4200191699228526
8	64	n/a	n/a	n/a	f	3	0.02000000000000001	2	f	1	0.3540417347812763
8	65	n/a	n/a	n/a	f	3	0.03000000000000001	0	f	1	0.4049680434754919
8	66	n/a	n/a	n/a	f	3	0.04000000000000001	1	f	1	0.4899400669064562
8	67	n/a	n/a	n/a	f	3	0.03000000000000001	2	f	1	0.3619346455016057
8	68	n/a	n/a	n/a	j	3	0.04000000000000001	1	j	1	0.39995774862291
8	69	n/a	n/a	n/a	f	3	0.03000000000000001	1	f	1	0.3878177477445206
8	70	n/a	n/a	n/a	f	3	0.02000000000000001	1	f	1	0.3859552089788849
8	71	n/a	n/a	n/a	f	3	0.01000000000000001	1	f	1	0.4411325991895865
9	0	f	1	0.6013913304277594	f	1	0.1	1	j	0	0.4180197845926159
9	1	n/a	n/a	n/a	j	1	0.09000000000000001	1	f	0	0.3681948056464535
9	2	n/a	n/a	n/a	f	1	0.08000000000000002	1	f	1	0.4049925618191992
9	3	n/a	n/a	n/a	f	1	0.07000000000000002	1	f	1	0.3850742592176175
9	4	n/a	n/a	n/a	f	1	0.06000000000000002	1	f	1	0.4220932506696045
9	5	n/a	n/a	n/a	j	1	0.05000000000000002	1	j	1	0.3955946239830155
9	6	n/a	n/a	n/a	f	1	0.04000000000000001	1	f	1	0.4018847193128749
9	7	n/a	n/a	n/a	f	1	0.03000000000000001	1	f	1	0.4068602323313826
9	8	n/a	n/a	n/a	f	1	0.02000000000000001	1	f	1	0.4134653598575824
9	9	n/a	n/a	n/a	j	1	0.01000000000000001	2	j	1	0.3096250461148884
9	10	n/a	n/a	n/a	f	1	0.02000000000000001	0	f	1	0.3708028730934529
9	11	n/a	n/a	n/a	f	1	0.03000000000000001	1	f	1	0.4489277216353003
9	12	n/a	n/a	n/a	f	1	0.02000000000000001	2	f	1	0.3828328265253731
9	13	n/a	n/a	n/a	j	1	0.03000000000000001	1	j	1	0.4357870302528681
9	14	n/a	n/a	n/a	f	1	0.02000000000000001	2	f	1	0.3598577137845496
9	15	n/a	n/a	n/a	f	1	0.03000000000000001	1	f	1	0.4367195825725503
9	16	n/a	n/a	n/a	f	1	0.02000000000000001	2	f	1	0.3779579527526948
9	17	n/a	n/a	n/a	j	1	0.03000000000000001	1	j	1	0.3896329604076527
9	18	n/a	n/a	n/a	f	1	0.02000000000000001	1	f	1	0.3627312065473234
9	19	n/a	n/a	n/a	f	1	0.01000000000000001	0	f	1	0.4327826779617681
9	20	n/a	n/a	n/a	f	1	0.02000000000000001	2	f	1	0.4215869183808536
9	21	n/a	n/a	n/a	j	1	0.03000000000000001	2	j	1	0.4035650810901643
9	22	n/a	n/a	n/a	f	1	0.04000000000000001	1	f	1	0.3534453118363672
9	23	n/a	n/a	n/a	f	1	0.03000000000000001	1	f	1	0.3937768454470643
9	24	n/a	n/a	n/a	f	1	0.02000000000000001	1	j	0	0.4086380972858024
9	25	n/a	n/a	n/a	j	1	0.01000000000000001	1	f	0	0.1024236667008154
9	26	n/a	n/a	n/a	f	1	0.02000000000000001	0	f	1	0.6086903840769082
9	27	n/a	n/a	n/a	f	1	0.03000000000000001	0	j	0	0.406339930287686
9	28	n/a	n/a	n/a	f	1	0.04000000000000001	1	f	1	0.3984929201860723
9	29	n/a	n/a	n/a	j	1	0.03000000000000001	1	f	0	0.382391781451588
9	30	n/a	n/a	n/a	f	1	0.02000000000000001	1	f	1	0.4923927564832411
9	31	n/a	n/a	n/a	f	1	0.01000000000000001	1	j	0	0.4020643304293117
9	32	n/a	n/a	n/a	f	1	0.02000000000000001	1	f	1	0.3452772825003194
9	33	n/a	n/a	n/a	j	1	0.01000000000000001	1	f	0	0.4142716142014251
9	34	n/a	n/a	n/a	f	1	0.02000000000000001	2	f	1	0.4252623890324685
9	35	n/a	n/a	n/a	f	1	0.03000000000000001	2	j	0	0.423222519927549
9	36	n/a	n/a	n/a	f	1	0.04000000000000001	1	f	1	0.350342315980015
9	37	n/a	n/a	n/a	j	1	0.03000000000000001	1	f	0	1.241920493286671
9	38	n/a	n/a	n/a	f	1	0.04000000000000001	1	j	0	0.406000664846033
9	39	n/a	n/a	n/a	f	1	0.05000000000000002	1	f	1	0.4750719727398973
9	40	n/a	n/a	n/a	f	1	0.04000000000000001	2	f	1	0.4056921898809378
9	41	n/a	n/a	n/a	j	1	0.05000000000000002	1	j	1	1.067012337287451
9	42	n/a	n/a	n/a	f	1	0.04000000000000001	2	f	1	0.4170538759217379
9	43	n/a	n/a	n/a	f	1	0.05000000000000002	2	j	0	0.4785929208128437
9	44	n/a	n/a	n/a	f	1	0.04000000000000001	2	j	0	0.5066307862571193
9	45	n/a	n/a	n/a	j	1	0.05000000000000002	2	j	1	0.9757248448922837
9	46	n/a	n/a	n/a	f	1	0.06000000000000002	2	f	1	0.3957189262782776
9	47	n/a	n/a	n/a	f	1	0.07000000000000002	1	f	1	0.4250941817972489
9	48	n/a	n/a	n/a	f	1	0.06000000000000002	1	f	1	0.4217548405194975
9	49	n/a	n/a	n/a	j	1	0.05000000000000002	1	j	1	0.5147061590641897
9	50	n/a	n/a	n/a	f	1	0.04000000000000001	2	f	1	0.4217534150348001
9	51	n/a	n/a	n/a	f	1	0.05000000000000002	1	f	1	0.4343994631053647
9	52	n/a	n/a	n/a	f	1	0.04000000000000001	1	j	0	0.4736490535642588
9	53	n/a	n/a	n/a	j	1	0.05000000000000002	1	f	0	0.4476165604874041
9	54	n/a	n/a	n/a	f	1	0.06000000000000002	1	f	1	0.8067099291874911
9	55	n/a	n/a	n/a	f	1	0.05000000000000002	1	j	0	0.4045478104826543
9	56	n/a	n/a	n/a	f	1	0.06000000000000002	1	j	0	1.200660968907869
9	57	n/a	n/a	n/a	j	1	0.05000000000000002	1	f	0	0.3974372059583402
9	58	n/a	n/a	n/a	f	1	0.06000000000000002	1	j	0	0.3294806273725044
9	59	n/a	n/a	n/a	f	1	0.05000000000000002	1	j	0	0.4314065146945723
9	60	n/a	n/a	n/a	f	1	0.06000000000000002	1	j	0	0.4693720282193681
9	61	n/a	n/a	n/a	j	1	0.05000000000000002	1	f	0	0.4013843740603988
9	62	n/a	n/a	n/a	f	1	0.06000000000000002	1	j	0	0.3513948941408671
9	63	n/a	n/a	n/a	f	1	0.05000000000000002	1	j	0	0.4110651281307582
9	64	n/a	n/a	n/a	f	1	0.04000000000000001	1	f	1	0.4503583384321246
9	65	n/a	n/a	n/a	j	1	0.03000000000000001	2	j	1	0.4222836954731974
9	66	n/a	n/a	n/a	f	1	0.04000000000000001	2	j	0	0.4202509537917649
9	67	n/a	n/a	n/a	f	1	0.03000000000000001	2	f	1	0.9382585362327518
9	68	n/a	n/a	n/a	f	1	0.04000000000000001	2	j	0	0.4441628953081818
9	69	n/a	n/a	n/a	j	1	0.05000000000000002	2	f	0	0.3991879866962336
9	70	n/a	n/a	n/a	f	1	0.06000000000000002	1	f	1	0.41911227633409
9	71	n/a	n/a	n/a	f	1	0.05000000000000002	1	f	1	0.4732664533757998
10	0	j	1	0.05167839460773394	j	8	0.1	0	j	1	0.6291788806984187
10	1	n/a	n/a	n/a	j	8	0.11	1	j	1	0.6087702112399711
10	2	n/a	n/a	n/a	f	8	0.1	1	f	1	0.5989583125456193
10	3	n/a	n/a	n/a	j	8	0.09000000000000001	1	j	1	0.6429373773016778
10	4	n/a	n/a	n/a	j	8	0.08000000000000002	1	j	1	0.5990492584915046
10	5	n/a	n/a	n/a	j	8	0.07000000000000002	1	j	1	0.6119342178562874
10	6	n/a	n/a	n/a	j	8	0.06000000000000002	1	j	1	0.6490666779191088
10	7	n/a	n/a	n/a	j	8	0.05000000000000002	2	j	1	0.620955827639591
10	8	n/a	n/a	n/a	f	8	0.06000000000000002	1	f	1	0.5945569849045569
10	9	n/a	n/a	n/a	j	8	0.05000000000000002	1	j	1	0.5849814316316042
10	10	n/a	n/a	n/a	j	8	0.04000000000000001	1	j	1	0.558448023109122
10	11	n/a	n/a	n/a	j	8	0.03000000000000001	1	j	1	0.5404629633321747
10	12	n/a	n/a	n/a	j	8	0.02000000000000001	0	j	1	0.673696208608817
10	13	n/a	n/a	n/a	j	8	0.03000000000000001	2	j	1	0.5608111922238095
10	14	n/a	n/a	n/a	f	8	0.04000000000000001	1	f	1	0.5596594003036444
10	15	n/a	n/a	n/a	j	8	0.03000000000000001	1	j	1	0.5645992761956222
10	16	n/a	n/a	n/a	j	8	0.02000000000000001	1	j	1	0.5927283726832684
10	17	n/a	n/a	n/a	j	8	0.01000000000000001	1	j	1	0.5025060027173822
10	18	n/a	n/a	n/a	j	8	1.040834085586084e-17	0	j	1	0.6105936917156214
10	19	n/a	n/a	n/a	j	8	0.01000000000000001	2	j	1	0.5934781778196339
10	20	n/a	n/a	n/a	f	8	0.02000000000000001	1	f	1	0.6075921903948256
10	21	n/a	n/a	n/a	j	8	0.01000000000000001	2	j	1	0.5324317805616374
10	22	n/a	n/a	n/a	j	8	0.02000000000000001	0	j	1	0.5620413858223401
10	23	n/a	n/a	n/a	j	8	0.03000000000000001	1	j	1	0.5109514314435728
10	24	n/a	n/a	n/a	j	8	0.02000000000000001	0	j	1	0.6092916536708799
10	25	n/a	n/a	n/a	j	8	0.03000000000000001	1	j	1	0.5498919767433108
10	26	n/a	n/a	n/a	f	8	0.02000000000000001	0	f	1	0.5719140101800804
10	27	n/a	n/a	n/a	j	8	0.03000000000000001	1	j	1	0.5465386657115232
10	28	n/a	n/a	n/a	j	8	0.02000000000000001	0	j	1	0.5351966513644584
10	29	n/a	n/a	n/a	j	8	0.03000000000000001	0	j	1	0.5551118178982506
10	30	n/a	n/a	n/a	j	8	0.04000000000000001	1	j	1	0.5602241774804497
10	31	n/a	n/a	n/a	j	8	0.03000000000000001	1	j	1	0.5869736895374444
10	32	n/a	n/a	n/a	f	8	0.02000000000000001	1	f	1	0.5041458807190793
10	33	n/a	n/a	n/a	j	8	0.01000000000000001	0	j	1	0.5169219330264241
10	34	n/a	n/a	n/a	j	8	0.02000000000000001	0	j	1	0.5281251051301297
10	35	n/a	n/a	n/a	j	8	0.03000000000000001	0	j	1	0.500033641446862
10	36	n/a	n/a	n/a	j	8	0.04000000000000001	0	j	1	0.5708905119145129
10	37	n/a	n/a	n/a	j	8	0.05000000000000002	1	j	1	0.5227008494175607
10	38	n/a	n/a	n/a	f	8	0.04000000000000001	0	f	1	0.4988533398263826
10	39	n/a	n/a	n/a	j	8	0.05000000000000002	0	j	1	0.4809942929277895
10	40	n/a	n/a	n/a	j	8	0.06000000000000002	0	j	1	0.4298364854603278
10	41	n/a	n/a	n/a	j	8	0.07000000000000002	0	j	1	0.4507742949699605
10	42	n/a	n/a	n/a	j	8	0.08000000000000002	0	j	1	0.450747210753434
10	43	n/a	n/a	n/a	j	8	0.09000000000000001	0	j	1	0.4023212028350827
10	44	n/a	n/a	n/a	f	8	0.1	0	f	1	0.4187319569227839
10	45	n/a	n/a	n/a	j	8	0.11	0	j	1	0.4247483591243508
10	46	n/a	n/a	n/a	j	8	0.12	0	j	1	0.4237835908425041
10	47	n/a	n/a	n/a	j	8	0.13	0	j	1	0.3636292621285975
10	48	n/a	n/a	n/a	j	8	0.14	0	j	1	0.4803958743041221
10	49	n/a	n/a	n/a	j	8	0.15	1	j	1	0.6215593780098061
10	50	n/a	n/a	n/a	f	8	0.14	1	f	1	0.640628091520739
10	51	n/a	n/a	n/a	j	8	0.13	1	j	1	0.556278434862179
10	52	n/a	n/a	n/a	j	8	0.12	1	j	1	0.7054089745115562
10	53	n/a	n/a	n/a	j	8	0.11	2	j	1	0.6704059040166612
10	54	n/a	n/a	n/a	j	8	0.12	1	j	1	0.6653554104859722
10	55	n/a	n/a	n/a	j	8	0.11	1	j	1	0.5589583467572083
10	56	n/a	n/a	n/a	f	8	0.1	1	f	1	0.5993409127322593
10	57	n/a	n/a	n/a	j	8	0.09000000000000002	1	j	1	0.5542716370100607
10	58	n/a	n/a	n/a	j	8	0.08000000000000003	1	j	1	0.5604035035003108
10	59	n/a	n/a	n/a	j	8	0.07000000000000003	1	j	1	0.5592326100804712
10	60	n/a	n/a	n/a	j	8	0.06000000000000003	1	j	1	0.6197626966531971
10	61	n/a	n/a	n/a	j	8	0.05000000000000003	1	j	1	0.601285844533777
10	62	n/a	n/a	n/a	f	8	0.04000000000000003	1	f	1	0.5522223597017728
10	63	n/a	n/a	n/a	j	8	0.03000000000000003	0	j	1	0.5417530273025477
10	64	n/a	n/a	n/a	j	8	0.04000000000000003	0	j	1	0.6047323822876933
10	65	n/a	n/a	n/a	j	8	0.05000000000000003	1	j	1	0.5159945124523801
10	66	n/a	n/a	n/a	j	8	0.04000000000000003	0	j	1	0.6418665529317877
10	67	n/a	n/a	n/a	j	8	0.05000000000000003	2	j	1	0.6560535503413121
10	68	n/a	n/a	n/a	f	8	0.06000000000000003	2	f	1	0.6518554968697572
10	69	n/a	n/a	n/a	j	8	0.07000000000000003	1	j	1	0.68112127513632
10	70	n/a	n/a	n/a	j	8	0.06000000000000003	2	j	1	0.5828662969142897
10	71	n/a	n/a	n/a	j	8	0.07000000000000003	1	j	1	0.5628268280843258
11	0	j	1	0.9094238246443638	j	10	0.1	1	f	0	0.7939985939019607
11	1	n/a	n/a	n/a	f	10	0.11	1	j	0	0.7267499111922007
11	2	n/a	n/a	n/a	j	10	0.12	0	j	1	0.6909135021378461
11	3	n/a	n/a	n/a	j	10	0.13	0	j	1	0.7548986793735821
11	4	n/a	n/a	n/a	j	10	0.14	0	j	1	0.7540681917835172
11	5	n/a	n/a	n/a	f	10	0.15	0	f	1	0.7668299892402501
11	6	n/a	n/a	n/a	j	10	0.16	0	j	1	0.6767313513764748
11	7	n/a	n/a	n/a	j	10	0.17	0	j	1	0.7696952141905058
11	8	n/a	n/a	n/a	j	10	0.18	0	j	1	0.8136748491406252
11	9	n/a	n/a	n/a	f	10	0.1900000000000001	1	f	1	0.812560690025748
11	10	n/a	n/a	n/a	j	10	0.18	1	j	1	0.768729590617113
11	11	n/a	n/a	n/a	j	10	0.17	0	j	1	0.7815341526265911
11	12	n/a	n/a	n/a	j	10	0.18	0	j	1	0.7774940428980699
11	13	n/a	n/a	n/a	f	10	0.1900000000000001	0	f	1	0.7026204406574834
11	14	n/a	n/a	n/a	j	10	0.2000000000000001	0	j	1	0.6894030581779589
11	15	n/a	n/a	n/a	j	10	0.2100000000000001	0	j	1	0.6849612467631232
11	16	n/a	n/a	n/a	j	10	0.2200000000000001	0	j	1	0.7842077923860415
11	17	n/a	n/a	n/a	f	10	0.2300000000000001	1	f	1	0.815023072900658
11	18	n/a	n/a	n/a	j	10	0.2200000000000001	1	j	1	0.7511294118048681
11	19	n/a	n/a	n/a	j	10	0.2100000000000001	0	j	1	0.756127732583991
11	20	n/a	n/a	n/a	j	10	0.2200000000000001	0	j	1	0.7858493809690117
11	21	n/a	n/a	n/a	f	10	0.2300000000000001	1	f	1	0.790111296170835
11	22	n/a	n/a	n/a	j	10	0.2200000000000001	1	j	1	0.809229046368273
11	23	n/a	n/a	n/a	j	10	0.2100000000000001	1	j	1	0.7880543212440898
11	24	n/a	n/a	n/a	j	10	0.2000000000000001	1	j	1	0.8739600373819485
11	25	n/a	n/a	n/a	f	10	0.1900000000000001	1	f	1	0.8010675742634703
11	26	n/a	n/a	n/a	j	10	0.18	0	j	1	0.7749027961745014
11	27	n/a	n/a	n/a	j	10	0.1900000000000001	0	j	1	0.8467366940949432
11	28	n/a	n/a	n/a	j	10	0.2000000000000001	1	j	1	0.9005077007550426
11	29	n/a	n/a	n/a	f	10	0.1900000000000001	1	f	1	0.8416149263111947
11	30	n/a	n/a	n/a	j	10	0.18	1	j	1	0.8625741180958357
11	31	n/a	n/a	n/a	j	10	0.17	1	j	1	0.8195640980757162
11	32	n/a	n/a	n/a	j	10	0.16	0	j	1	0.8585608074863558
11	33	n/a	n/a	n/a	f	10	0.17	1	f	1	0.8914946438817424
11	34	n/a	n/a	n/a	j	10	0.16	1	j	1	0.8242699093225383
11	35	n/a	n/a	n/a	j	10	0.15	0	j	1	0.8135037909341918
11	36	n/a	n/a	n/a	j	10	0.16	0	j	1	0.9301193016945035
11	37	n/a	n/a	n/a	f	10	0.17	1	f	1	0.8819664167131123
11	38	n/a	n/a	n/a	j	10	0.16	1	j	1	0.8262998000336665
11	39	n/a	n/a	n/a	j	10	0.15	0	j	1	0.8003009484036738
11	40	n/a	n/a	n/a	j	10	0.16	0	j	1	0.8640087262492671
11	41	n/a	n/a	n/a	f	10	0.17	1	f	1	0.9351258902870541
11	42	n/a	n/a	n/a	j	10	0.16	1	j	1	0.9160657296861245
11	43	n/a	n/a	n/a	j	10	0.15	1	j	1	0.8420434271165504
11	44	n/a	n/a	n/a	j	10	0.14	0	j	1	0.8478152160832906
11	45	n/a	n/a	n/a	f	10	0.15	1	f	1	0.868018045500321
11	46	n/a	n/a	n/a	j	10	0.14	1	j	1	0.8090745237886949
11	47	n/a	n/a	n/a	j	10	0.13	0	j	1	0.8677979506092015
11	48	n/a	n/a	n/a	j	10	0.14	1	j	1	2.489740784096284
11	49	n/a	n/a	n/a	f	10	0.13	2	f	1	0.8876541020617879
11	50	n/a	n/a	n/a	j	10	0.14	1	j	1	0.7625429855015682
11	51	n/a	n/a	n/a	j	10	0.13	0	j	1	0.7695503849090528
11	52	n/a	n/a	n/a	j	10	0.14	0	j	1	0.8065448580191514
11	53	n/a	n/a	n/a	f	10	0.15	0	f	1	0.7331668746928699
11	54	n/a	n/a	n/a	j	10	0.16	0	j	1	0.7144160443467626
11	55	n/a	n/a	n/a	j	10	0.17	0	j	1	0.8383169240996722
11	56	n/a	n/a	n/a	j	10	0.18	1	j	1	0.8353142823907547
11	57	n/a	n/a	n/a	f	10	0.17	1	f	1	0.8253202067062375
11	58	n/a	n/a	n/a	j	10	0.16	0	j	1	0.7902447215719803
11	59	n/a	n/a	n/a	j	10	0.17	0	j	1	0.7801445897994199
11	60	n/a	n/a	n/a	j	10	0.18	0	j	1	0.8330104134529392
11	61	n/a	n/a	n/a	f	10	0.1900000000000001	1	f	1	0.8628398285081857
11	62	n/a	n/a	n/a	j	10	0.18	1	j	1	0.8669831433535364
11	63	n/a	n/a	n/a	j	10	0.17	1	j	1	0.8069397173776451
11	64	n/a	n/a	n/a	j	10	0.16	0	j	1	0.9109556508792593
11	65	n/a	n/a	n/a	f	10	0.17	1	f	1	0.8357986622113458
11	66	n/a	n/a	n/a	j	10	0.16	1	j	1	0.8228951715400399
11	67	n/a	n/a	n/a	j	10	0.15	0	j	1	0.8514185571921189
11	68	n/a	n/a	n/a	j	10	0.16	1	j	1	0.9037683552578528
11	69	n/a	n/a	n/a	f	10	0.15	1	f	1	0.7736249913759821
11	70	n/a	n/a	n/a	j	10	0.14	0	j	1	0.8336476052709259
11	71	n/a	n/a	n/a	j	10	0.15	0	j	1	0.8375012615542801
12	0	f	1	0.7940601748559857	f	7	0.3000000000000002	1	f	1	0.5073383970366194
12	1	n/a	n/a	n/a	f	7	0.2900000000000001	1	j	0	0.6104166464720038
12	2	n/a	n/a	n/a	j	7	0.2800000000000001	1	f	0	0.5744345528446502
12	3	n/a	n/a	n/a	f	7	0.2700000000000001	1	f	1	0.5873192271137668
12	4	n/a	n/a	n/a	f	7	0.2600000000000001	1	f	1	0.575409869716168
12	5	n/a	n/a	n/a	f	7	0.2500000000000001	1	f	1	0.5741007042461206
12	6	n/a	n/a	n/a	f	7	0.2400000000000001	1	f	1	0.5552900035290804
12	7	n/a	n/a	n/a	f	7	0.2300000000000001	1	f	1	0.593267206031669
12	8	n/a	n/a	n/a	j	7	0.2200000000000001	1	j	1	0.534250984582286
12	9	n/a	n/a	n/a	f	7	0.2100000000000001	1	f	1	0.6032418951199361
12	10	n/a	n/a	n/a	f	7	0.2000000000000001	1	f	1	0.5781262740274542
12	11	n/a	n/a	n/a	f	7	0.1900000000000001	1	f	1	0.5922998718770032
12	12	n/a	n/a	n/a	f	7	0.18	1	f	1	0.6211214690019915
12	13	n/a	n/a	n/a	f	7	0.17	1	f	1	0.564051604839733
12	14	n/a	n/a	n/a	j	7	0.16	1	j	1	0.5639783349088248
12	15	n/a	n/a	n/a	f	7	0.15	1	f	1	0.591727397080831
12	16	n/a	n/a	n/a	f	7	0.14	1	f	1	0.5736810414482534
12	17	n/a	n/a	n/a	f	7	0.13	1	f	1	0.5399201386262575
12	18	n/a	n/a	n/a	f	7	0.12	1	f	1	0.6250709178812031
12	19	n/a	n/a	n/a	f	7	0.11	1	f	1	0.5794998714218309
12	20	n/a	n/a	n/a	j	7	0.1	1	j	1	0.5558068844084119
12	21	n/a	n/a	n/a	f	7	0.09000000000000002	1	f	1	0.5859248176375331
12	22	n/a	n/a	n/a	f	7	0.08000000000000003	1	f	1	0.5508211078986278
12	23	n/a	n/a	n/a	f	7	0.07000000000000003	1	f	1	0.5557812256784018
12	24	n/a	n/a	n/a	f	7	0.06000000000000003	1	f	1	0.6247992204307593
12	25	n/a	n/a	n/a	f	7	0.05000000000000003	1	f	1	0.5726960312786105
12	26	n/a	n/a	n/a	j	7	0.04000000000000003	1	j	1	0.5716135179318371
12	27	n/a	n/a	n/a	f	7	0.03000000000000003	1	f	1	0.6007370327906756
12	28	n/a	n/a	n/a	f	7	0.02000000000000002	1	f	1	0.5825826253894775
12	29	n/a	n/a	n/a	f	7	0.01000000000000002	1	f	1	0.5795520441743065
12	30	n/a	n/a	n/a	f	7	2.42861286636753e-17	0	f	1	0.6195688306861484
12	31	n/a	n/a	n/a	f	7	0.01000000000000002	2	f	1	0.5374366585720054
12	32	n/a	n/a	n/a	j	7	0.02000000000000002	0	j	1	0.514418496181861
12	33	n/a	n/a	n/a	f	7	0.03000000000000003	0	f	1	0.630345497662347
12	34	n/a	n/a	n/a	f	7	0.04000000000000003	2	f	1	0.5539722851490296
12	35	n/a	n/a	n/a	f	7	0.05000000000000003	1	f	1	0.5682262803566118
12	36	n/a	n/a	n/a	f	7	0.04000000000000003	1	f	1	0.6202895559272292
12	37	n/a	n/a	n/a	f	7	0.03000000000000003	2	f	1	0.5529579099884359
12	38	n/a	n/a	n/a	j	7	0.04000000000000003	1	j	1	0.5747521509138096
12	39	n/a	n/a	n/a	f	7	0.03000000000000003	1	f	1	0.5961549536459643
12	40	n/a	n/a	n/a	f	7	0.02000000000000002	1	f	1	0.5452314959211435
12	41	n/a	n/a	n/a	f	7	0.01000000000000002	0	f	1	0.5810650540061033
12	42	n/a	n/a	n/a	f	7	0.02000000000000002	1	f	1	0.5852286107401596
12	43	n/a	n/a	n/a	f	7	0.01000000000000002	1	f	1	0.5330638406330763
12	44	n/a	n/a	n/a	j	7	2.42861286636753e-17	0	j	1	0.6028176707686725
12	45	n/a	n/a	n/a	f	7	0.01000000000000002	2	f	1	0.5357637093175072
12	46	n/a	n/a	n/a	f	7	0.02000000000000002	0	f	1	0.5969831604606952
12	47	n/a	n/a	n/a	f	7	0.03000000000000003	1	f	1	0.5558351090121505
12	48	n/a	n/a	n/a	f	7	0.02000000000000002	0	f	1	0.6708723227256996
12	49	n/a	n/a	n/a	f	7	0.03000000000000003	2	f	1	0.6038588450492171
12	50	n/a	n/a	n/a	j	7	0.04000000000000003	1	j	1	0.6034329101166804
12	51	n/a	n/a	n/a	f	7	0.03000000000000003	1	f	1	0.5448238071967353
12	52	n/a	n/a	n/a	f	7	0.02000000000000002	0	f	1	0.5814562071036562
12	53	n/a	n/a	n/a	f	7	0.03000000000000003	1	f	1	0.5557618390803327
12	54	n/a	n/a	n/a	f	7	0.02000000000000002	0	f	1	0.6867009087181941
12	55	n/a	n/a	n/a	f	7	0.03000000000000003	2	f	1	0.5306470732793969
12	56	n/a	n/a	n/a	j	7	0.04000000000000003	0	j	1	0.5716115222521694
12	57	n/a	n/a	n/a	f	7	0.05000000000000003	1	f	1	0.6335539794126817
12	58	n/a	n/a	n/a	f	7	0.04000000000000003	2	f	1	0.5505040800235292
12	59	n/a	n/a	n/a	f	7	0.05000000000000003	1	f	1	0.5585344075025205
12	60	n/a	n/a	n/a	f	7	0.04000000000000003	1	f	1	0.6264154353802951
12	61	n/a	n/a	n/a	f	7	0.03000000000000003	2	f	1	0.5824300984895672
12	62	n/a	n/a	n/a	j	7	0.04000000000000003	1	j	1	0.5563457177568125
12	63	n/a	n/a	n/a	f	7	0.03000000000000003	0	f	1	0.5869451798362206
12	64	n/a	n/a	n/a	f	7	0.04000000000000003	1	f	1	0.5370198467426235
12	65	n/a	n/a	n/a	f	7	0.03000000000000003	0	f	1	0.6153211703349371
12	66	n/a	n/a	n/a	f	7	0.04000000000000003	1	f	1	0.6499775628653879
12	67	n/a	n/a	n/a	f	7	0.03000000000000003	2	f	1	0.653036368685207
12	68	n/a	n/a	n/a	j	7	0.04000000000000003	2	j	1	0.5552375456791196
12	69	n/a	n/a	n/a	f	7	0.05000000000000003	1	f	1	0.6722416436641652
12	70	n/a	n/a	n/a	f	7	0.04000000000000003	2	f	1	0.5311006626225208
12	71	n/a	n/a	n/a	f	7	0.05000000000000003	0	f	1	0.6082633087553404
13	0	j	1	0.08684482568878593	j	4	0.08000000000000002	2	j	1	0.5362432424881263
13	1	n/a	n/a	n/a	j	4	0.09000000000000001	2	j	1	0.4528204362104589
13	2	n/a	n/a	n/a	f	4	0.1	1	f	1	0.4101767658476092
13	3	n/a	n/a	n/a	j	4	0.09000000000000001	1	j	1	0.4230973623398313
13	4	n/a	n/a	n/a	j	4	0.08000000000000002	1	j	1	0.4160129867386786
13	5	n/a	n/a	n/a	j	4	0.07000000000000002	1	j	1	0.399940927899479
13	6	n/a	n/a	n/a	j	4	0.06000000000000002	1	j	1	0.4188497019886199
13	7	n/a	n/a	n/a	j	4	0.05000000000000002	1	j	1	0.3691980620242248
13	8	n/a	n/a	n/a	f	4	0.04000000000000001	1	f	1	0.397132722351671
13	9	n/a	n/a	n/a	j	4	0.03000000000000001	1	j	1	0.4331664185374393
13	10	n/a	n/a	n/a	j	4	0.02000000000000001	2	j	1	0.4138787505216897
13	11	n/a	n/a	n/a	j	4	0.03000000000000001	1	j	1	0.361988813933749
13	12	n/a	n/a	n/a	j	4	0.02000000000000001	0	j	1	0.4800956671524546
13	13	n/a	n/a	n/a	j	4	0.03000000000000001	2	j	1	0.4288671556269037
13	14	n/a	n/a	n/a	f	4	0.04000000000000001	2	f	1	0.3958580536200316
13	15	n/a	n/a	n/a	j	4	0.05000000000000002	1	j	1	0.4396406865362223
13	16	n/a	n/a	n/a	j	4	0.04000000000000001	2	j	1	0.4027824897984829
13	17	n/a	n/a	n/a	j	4	0.05000000000000002	1	j	1	0.4170610033479534
13	18	n/a	n/a	n/a	j	4	0.04000000000000001	1	j	1	0.4868182546470052
13	19	n/a	n/a	n/a	j	4	0.03000000000000001	2	j	1	0.3958050255760099
13	20	n/a	n/a	n/a	f	4	0.04000000000000001	1	f	1	0.3717539567187487
13	21	n/a	n/a	n/a	j	4	0.03000000000000001	1	j	1	0.9717571498049438
13	22	n/a	n/a	n/a	j	4	0.02000000000000001	2	j	1	0.343657646387328
13	23	n/a	n/a	n/a	j	4	0.03000000000000001	0	j	1	0.3976467522606981
13	24	n/a	n/a	n/a	j	4	0.04000000000000001	1	j	1	0.5575582353403661
13	25	n/a	n/a	n/a	j	4	0.03000000000000001	2	j	1	0.4007357783639236
13	26	n/a	n/a	n/a	f	4	0.04000000000000001	1	f	1	0.3885470258965142
13	27	n/a	n/a	n/a	j	4	0.03000000000000001	1	j	1	0.4344892686631283
13	28	n/a	n/a	n/a	j	4	0.02000000000000001	2	j	1	0.3663653381336189
13	29	n/a	n/a	n/a	j	4	0.03000000000000001	1	j	1	0.3875004347728463
13	30	n/a	n/a	n/a	j	4	0.02000000000000001	1	j	1	0.5046182864643924
13	31	n/a	n/a	n/a	j	4	0.01000000000000001	2	j	1	0.3894524940005795
13	32	n/a	n/a	n/a	f	4	0.02000000000000001	1	f	1	0.3954475139253191
13	33	n/a	n/a	n/a	j	4	0.01000000000000001	2	j	1	0.4245419488888729
13	34	n/a	n/a	n/a	j	4	0.02000000000000001	2	j	1	0.3833844892405978
13	35	n/a	n/a	n/a	j	4	0.03000000000000001	1	j	1	0.3663316966867569
13	36	n/a	n/a	n/a	j	4	0.02000000000000001	1	j	1	0.458318532046178
13	37	n/a	n/a	n/a	j	4	0.01000000000000001	2	j	1	0.3704177070330843
13	38	n/a	n/a	n/a	f	4	0.02000000000000001	0	f	1	0.3992504229408951
13	39	n/a	n/a	n/a	j	4	0.03000000000000001	1	j	1	0.4281398731545778
13	40	n/a	n/a	n/a	j	4	0.02000000000000001	2	j	1	0.3772648819212918
13	41	n/a	n/a	n/a	j	4	0.03000000000000001	1	j	1	0.397860289921482
13	42	n/a	n/a	n/a	j	4	0.02000000000000001	1	j	1	0.5022089316335041
13	43	n/a	n/a	n/a	j	4	0.01000000000000001	2	j	1	0.3801714459377763
13	44	n/a	n/a	n/a	f	4	0.02000000000000001	1	f	1	0.3961286106823536
13	45	n/a	n/a	n/a	j	4	0.01000000000000001	2	j	1	0.4020446587355764
13	46	n/a	n/a	n/a	j	4	0.02000000000000001	1	j	1	0.4079059681644139
13	47	n/a	n/a	n/a	j	4	0.01000000000000001	2	j	1	0.390068018445163
13	48	n/a	n/a	n/a	j	4	0.02000000000000001	1	j	1	0.5090227501714253
13	49	n/a	n/a	n/a	j	4	0.01000000000000001	2	j	1	0.3969973012717674
13	50	n/a	n/a	n/a	f	4	0.02000000000000001	1	f	1	0.425973135879758
13	51	n/a	n/a	n/a	j	4	0.01000000000000001	2	j	1	0.3840878235632772
13	52	n/a	n/a	n/a	j	4	0.02000000000000001	1	j	1	0.380955177618489
13	53	n/a	n/a	n/a	j	4	0.01000000000000001	1	j	1	0.3948502356897734
13	54	n/a	n/a	n/a	j	4	1.040834085586084e-17	2	j	1	0.5130608642202787
13	55	n/a	n/a	n/a	j	4	0.01000000000000001	2	j	1	0.3668542795057874
13	56	n/a	n/a	n/a	f	4	0.02000000000000001	1	f	1	0.4349451387824956
13	57	n/a	n/a	n/a	j	4	0.01000000000000001	2	j	1	0.4399902154709707
13	58	n/a	n/a	n/a	j	4	0.02000000000000001	2	j	1	0.3797623317286707
13	59	n/a	n/a	n/a	j	4	0.03000000000000001	1	j	1	0.4097590987285002
13	60	n/a	n/a	n/a	j	4	0.02000000000000001	2	j	1	0.4948092387403449
13	61	n/a	n/a	n/a	j	4	0.03000000000000001	2	j	1	0.4037917332134384
13	62	n/a	n/a	n/a	f	4	0.04000000000000001	1	f	1	0.4397915028548596
13	63	n/a	n/a	n/a	j	4	0.03000000000000001	2	j	1	0.4546279512533147
13	64	n/a	n/a	n/a	j	4	0.04000000000000001	2	j	1	0.370298821580036
13	65	n/a	n/a	n/a	j	4	0.05000000000000002	1	j	1	0.4327707038873996
13	66	n/a	n/a	n/a	j	4	0.04000000000000001	2	j	1	0.5095963653548097
13	67	n/a	n/a	n/a	j	4	0.05000000000000002	2	j	1	0.4025344553992909
13	68	n/a	n/a	n/a	f	4	0.06000000000000002	1	f	1	0.4101206017367076
13	69	n/a	n/a	n/a	j	4	0.05000000000000002	1	j	1	0.4075045515737656
13	70	n/a	n/a	n/a	j	4	0.04000000000000001	1	j	1	0.3824775956509257
13	71	n/a	n/a	n/a	j	4	0.03000000000000001	1	j	1	0.3963897595431263
14	0	f	1	0.6559879780288611	f	5	0.08000000000000002	1	j	0	0.5694995236026443
14	1	n/a	n/a	n/a	j	5	0.09000000000000001	1	f	0	0.5900689877744298
14	2	n/a	n/a	n/a	f	5	0.08000000000000002	1	f	1	0.5694040161051817
14	3	n/a	n/a	n/a	f	5	0.07000000000000002	1	f	1	0.5903244346955034
14	4	n/a	n/a	n/a	f	5	0.06000000000000002	1	f	1	0.5942724580891081
14	5	n/a	n/a	n/a	j	5	0.05000000000000002	1	j	1	0.6232676792933489
14	6	n/a	n/a	n/a	f	5	0.04000000000000001	1	f	1	0.6452631987085624
14	7	n/a	n/a	n/a	f	5	0.03000000000000001	2	f	1	0.5843510821423479
14	8	n/a	n/a	n/a	f	5	0.04000000000000001	1	f	1	0.6051395008180407
14	9	n/a	n/a	n/a	j	5	0.03000000000000001	1	j	1	0.6500508327972057
14	10	n/a	n/a	n/a	f	5	0.02000000000000001	2	f	1	0.5170701834713327
14	11	n/a	n/a	n/a	f	5	0.03000000000000001	0	f	1	0.6251992115358007
14	12	n/a	n/a	n/a	f	5	0.04000000000000001	1	f	1	0.6390235655480865
14	13	n/a	n/a	n/a	j	5	0.03000000000000001	2	j	1	0.5869349163440347
14	14	n/a	n/a	n/a	f	5	0.04000000000000001	1	f	1	0.5829720679057573
14	15	n/a	n/a	n/a	f	5	0.03000000000000001	1	f	1	0.5487407550172065
14	16	n/a	n/a	n/a	f	5	0.02000000000000001	0	f	1	0.6175988103477721
14	17	n/a	n/a	n/a	j	5	0.03000000000000001	1	j	1	0.598889033971318
14	18	n/a	n/a	n/a	f	5	0.02000000000000001	1	f	1	0.5957934506377569
14	19	n/a	n/a	n/a	f	5	0.01000000000000001	2	f	1	0.5769445469204584
14	20	n/a	n/a	n/a	f	5	0.02000000000000001	1	f	1	0.5812817277337672
14	21	n/a	n/a	n/a	j	5	0.01000000000000001	1	j	1	0.642628047045946
14	22	n/a	n/a	n/a	f	5	1.040834085586084e-17	2	f	1	0.5826558953212952
14	23	n/a	n/a	n/a	f	5	0.01000000000000001	1	f	1	0.6016787082144219
14	24	n/a	n/a	n/a	f	5	1.040834085586084e-17	2	f	1	0.6555457925669543
14	25	n/a	n/a	n/a	j	5	0.01000000000000001	2	j	1	0.6435107073884865
14	26	n/a	n/a	n/a	f	5	0.02000000000000001	2	f	1	0.6417582160684105
14	27	n/a	n/a	n/a	f	5	0.03000000000000001	2	f	1	0.551471984372256
14	28	n/a	n/a	n/a	f	5	0.04000000000000001	1	f	1	0.6195195089030676
14	29	n/a	n/a	n/a	j	5	0.03000000000000001	1	j	1	0.5124647263719453
14	30	n/a	n/a	n/a	f	5	0.02000000000000001	0	f	1	0.4762676696000199
14	31	n/a	n/a	n/a	f	5	0.03000000000000001	0	f	1	0.4973602867848967
14	32	n/a	n/a	n/a	f	5	0.04000000000000001	0	f	1	0.5089477696574249
14	33	n/a	n/a	n/a	j	5	0.05000000000000002	0	j	1	0.5320383466887506
14	34	n/a	n/a	n/a	f	5	0.06000000000000002	1	f	1	0.5872619226147435
14	35	n/a	n/a	n/a	f	5	0.05000000000000002	1	f	1	0.601128185887319
14	36	n/a	n/a	n/a	f	5	0.04000000000000001	1	f	1	0.5890320899497965
14	37	n/a	n/a	n/a	j	5	0.03000000000000001	1	j	1	0.5532709465051084
14	38	n/a	n/a	n/a	f	5	0.02000000000000001	0	f	1	0.525122178323727
14	39	n/a	n/a	n/a	f	5	0.03000000000000001	0	f	1	0.5298881450389672
14	40	n/a	n/a	n/a	f	5	0.04000000000000001	0	f	1	0.6071149380004499
14	41	n/a	n/a	n/a	j	5	0.05000000000000002	1	j	1	0.6030226555194531
14	42	n/a	n/a	n/a	f	5	0.04000000000000001	1	f	1	0.5281402152704686
14	43	n/a	n/a	n/a	f	5	0.03000000000000001	0	f	1	0.5810436717301855
14	44	n/a	n/a	n/a	f	5	0.04000000000000001	1	f	1	0.6679298364861097
14	45	n/a	n/a	n/a	j	5	0.03000000000000001	2	j	1	0.594758833587548
14	46	n/a	n/a	n/a	f	5	0.04000000000000001	1	f	1	0.62287880697113
14	47	n/a	n/a	n/a	f	5	0.03000000000000001	2	f	1	0.6188352760791531
14	48	n/a	n/a	n/a	f	5	0.04000000000000001	1	f	1	0.6479416851170754
14	49	n/a	n/a	n/a	j	5	0.03000000000000001	2	j	1	0.5557989016915599
14	50	n/a	n/a	n/a	f	5	0.04000000000000001	1	f	1	0.5587334052161168
14	51	n/a	n/a	n/a	f	5	0.03000000000000001	1	f	1	0.5953047943621641
14	52	n/a	n/a	n/a	f	5	0.02000000000000001	1	f	1	0.5856973102236225
14	53	n/a	n/a	n/a	j	5	0.01000000000000001	1	j	1	0.6056295825783309
14	54	n/a	n/a	n/a	f	5	1.040834085586084e-17	2	f	1	0.5233577129283731
14	55	n/a	n/a	n/a	f	5	0.01000000000000001	0	f	1	0.5776188013496721
14	56	n/a	n/a	n/a	f	5	0.02000000000000001	1	f	1	0.6301775755237031
14	57	n/a	n/a	n/a	j	5	0.01000000000000001	2	j	1	0.6814799271742231
14	58	n/a	n/a	n/a	f	5	0.02000000000000001	2	f	1	0.5913043131185987
14	59	n/a	n/a	n/a	f	5	0.03000000000000001	1	f	1	0.635325572232432
14	60	n/a	n/a	n/a	f	5	0.02000000000000001	2	f	1	0.5605004364833803
14	61	n/a	n/a	n/a	j	5	0.03000000000000001	1	j	1	0.5803394821150505
14	62	n/a	n/a	n/a	f	5	0.02000000000000001	1	f	1	0.6324483732078079
14	63	n/a	n/a	n/a	f	5	0.01000000000000001	2	f	1	0.6302459988064584
14	64	n/a	n/a	n/a	f	5	0.02000000000000001	2	f	1	0.5459308388863064
14	65	n/a	n/a	n/a	j	5	0.03000000000000001	0	j	1	0.5439995917404303
14	66	n/a	n/a	n/a	f	5	0.04000000000000001	0	f	1	0.5491373249578828
14	67	n/a	n/a	n/a	f	5	0.05000000000000002	1	f	1	0.5211251182436172
14	68	n/a	n/a	n/a	f	5	0.04000000000000001	0	f	1	0.5639692118038511
14	69	n/a	n/a	n/a	j	5	0.05000000000000002	1	j	1	0.518100524064721
14	70	n/a	n/a	n/a	f	5	0.04000000000000001	0	f	1	0.5452608609130039
14	71	n/a	n/a	n/a	f	5	0.05000000000000002	1	f	1	0.5427947717771531
15	0	f	1	0.9570387315689004	f	11	0.2000000000000001	0	f	1	0.7343773965967557
15	1	n/a	n/a	n/a	f	11	0.2100000000000001	0	f	1	0.7373652132610005
15	2	n/a	n/a	n/a	j	11	0.2200000000000001	0	j	1	0.7492751408526601
15	3	n/a	n/a	n/a	f	11	0.2300000000000001	0	f	1	0.7232563324323564
15	4	n/a	n/a	n/a	f	11	0.2400000000000001	0	f	1	0.7523835535521357
15	5	n/a	n/a	n/a	f	11	0.2500000000000001	1	f	1	0.7161782289658731
15	6	n/a	n/a	n/a	f	11	0.2400000000000001	1	j	0	0.6972743015257947
15	7	n/a	n/a	n/a	f	11	0.2500000000000001	0	f	1	0.7080110549222809
15	8	n/a	n/a	n/a	j	11	0.2600000000000001	0	f	0	0.6651176395789662
15	9	n/a	n/a	n/a	f	11	0.2700000000000001	0	f	1	0.6917807672416529
15	10	n/a	n/a	n/a	f	11	0.2800000000000001	0	j	0	0.6891407689290645
15	11	n/a	n/a	n/a	f	11	0.2900000000000001	0	j	0	0.6209532617667719
15	12	n/a	n/a	n/a	f	11	0.3000000000000002	0	f	1	0.6320232935659078
15	13	n/a	n/a	n/a	f	11	0.3100000000000002	0	f	1	0.5888630274221214
15	14	n/a	n/a	n/a	j	11	0.3200000000000002	0	f	0	0.6016661639450831
15	15	n/a	n/a	n/a	f	11	0.3300000000000002	0	j	0	0.5813675419340143
15	16	n/a	n/a	n/a	f	11	0.3400000000000002	0	j	0	0.5855955305905809
15	17	n/a	n/a	n/a	f	11	0.3500000000000002	0	f	1	0.5417775456453455
15	18	n/a	n/a	n/a	f	11	0.3600000000000002	0	f	1	0.6103405255707912
15	19	n/a	n/a	n/a	f	11	0.3700000000000002	0	f	1	0.56078553349289
15	20	n/a	n/a	n/a	j	11	0.3800000000000002	0	f	0	0.516605760441962
15	21	n/a	n/a	n/a	f	11	0.3900000000000002	0	f	1	0.6416381902272406
15	22	n/a	n/a	n/a	f	11	0.4000000000000002	1	f	1	0.8365114047355746
15	23	n/a	n/a	n/a	f	11	0.3900000000000002	1	j	0	0.6424635460707577
15	24	n/a	n/a	n/a	f	11	0.3800000000000002	1	f	1	0.6715003914387125
15	25	n/a	n/a	n/a	f	11	0.3700000000000002	1	f	1	0.6603228780659265
15	26	n/a	n/a	n/a	j	11	0.3600000000000002	1	j	1	0.573401076184382
15	27	n/a	n/a	n/a	f	11	0.3500000000000002	0	f	1	0.6413847389849252
15	28	n/a	n/a	n/a	f	11	0.3600000000000002	1	f	1	0.6232089493096282
15	29	n/a	n/a	n/a	f	11	0.3500000000000002	0	f	1	0.571967893515648
15	30	n/a	n/a	n/a	f	11	0.3600000000000002	0	f	1	0.6341960178788213
15	31	n/a	n/a	n/a	f	11	0.3700000000000002	1	f	1	0.6402491975941302
15	32	n/a	n/a	n/a	j	11	0.3600000000000002	1	j	1	0.5588371805270071
15	33	n/a	n/a	n/a	f	11	0.3500000000000002	0	f	1	0.5741528769995057
15	34	n/a	n/a	n/a	f	11	0.3600000000000002	0	f	1	0.6179278122963296
15	35	n/a	n/a	n/a	f	11	0.3700000000000002	1	f	1	0.5932039144954615
15	36	n/a	n/a	n/a	f	11	0.3600000000000002	0	f	1	0.6530702952286447
15	37	n/a	n/a	n/a	f	11	0.3700000000000002	1	f	1	0.6179654451025272
15	38	n/a	n/a	n/a	j	11	0.3600000000000002	0	j	1	0.5910103781016005
15	39	n/a	n/a	n/a	f	11	0.3700000000000002	0	f	1	0.6175349486165942
15	40	n/a	n/a	n/a	f	11	0.3800000000000002	1	f	1	0.6337794911469246
15	41	n/a	n/a	n/a	f	11	0.3700000000000002	1	f	1	0.5929470420896905
15	42	n/a	n/a	n/a	f	11	0.3600000000000002	0	f	1	0.6228078178155556
15	43	n/a	n/a	n/a	f	11	0.3700000000000002	1	f	1	0.5967818819708555
15	44	n/a	n/a	n/a	j	11	0.3600000000000002	0	j	1	1.361728805461098
15	45	n/a	n/a	n/a	f	11	0.3700000000000002	2	f	1	0.5687485780790666
15	46	n/a	n/a	n/a	f	11	0.3800000000000002	0	f	1	0.5476499738570055
15	47	n/a	n/a	n/a	f	11	0.3900000000000002	0	f	1	0.6087200341662538
15	48	n/a	n/a	n/a	f	11	0.4000000000000002	1	f	1	0.6045533413653175
15	49	n/a	n/a	n/a	f	11	0.3900000000000002	1	f	1	0.6015686607688622
15	50	n/a	n/a	n/a	j	11	0.3800000000000002	0	j	1	0.5435266158010563
15	51	n/a	n/a	n/a	f	11	0.3900000000000002	0	f	1	0.6132450939085174
15	52	n/a	n/a	n/a	f	11	0.4000000000000002	1	f	1	0.6325769519589812
15	53	n/a	n/a	n/a	f	11	0.3900000000000002	1	f	1	0.5672808986719247
15	54	n/a	n/a	n/a	f	11	0.3800000000000002	0	f	1	0.6119573107143879
15	55	n/a	n/a	n/a	f	11	0.3900000000000002	1	f	1	0.6433396491829626
15	56	n/a	n/a	n/a	j	11	0.3800000000000002	1	j	1	0.5930271543493291
15	57	n/a	n/a	n/a	f	11	0.3700000000000002	0	f	1	0.5899444003816825
15	58	n/a	n/a	n/a	f	11	0.3800000000000002	0	f	1	0.6351912915406501
15	59	n/a	n/a	n/a	f	11	0.3900000000000002	1	f	1	0.6890461167222384
15	60	n/a	n/a	n/a	f	11	0.3800000000000002	1	f	1	0.6621084406388036
15	61	n/a	n/a	n/a	f	11	0.3700000000000002	1	f	1	0.6662839714472284
15	62	n/a	n/a	n/a	j	11	0.3600000000000002	1	j	1	0.5970130956457069
15	63	n/a	n/a	n/a	f	11	0.3500000000000002	0	f	1	0.5851618980386775
15	64	n/a	n/a	n/a	f	11	0.3600000000000002	0	f	1	0.6160983447834951
15	65	n/a	n/a	n/a	f	11	0.3700000000000002	0	f	1	0.6279224581749077
15	66	n/a	n/a	n/a	f	11	0.3800000000000002	1	f	1	0.6650212767899575
15	67	n/a	n/a	n/a	f	11	0.3700000000000002	1	f	1	0.6149023628277064
15	68	n/a	n/a	n/a	j	11	0.3600000000000002	0	j	1	0.5979137171007096
15	69	n/a	n/a	n/a	f	11	0.3700000000000002	0	f	1	0.6108679550388842
15	70	n/a	n/a	n/a	f	11	0.3800000000000002	1	f	1	0.6636106167843536
15	71	n/a	n/a	n/a	f	11	0.3700000000000002	1	f	1	0.6197778067944455
16	0	f	1	0.9076662015786496	f	9	0.08000000000000003	1	j	0	0.7251550785185827
16	1	n/a	n/a	n/a	j	9	0.09000000000000002	1	f	0	0.769049754560001
16	2	n/a	n/a	n/a	f	9	0.1	0	f	1	0.6610145234117226
16	3	n/a	n/a	n/a	f	9	0.11	0	f	1	0.6919255965231059
16	4	n/a	n/a	n/a	f	9	0.12	0	f	1	0.7221772402499482
16	5	n/a	n/a	n/a	j	9	0.13	0	j	1	0.6779307544975381
16	6	n/a	n/a	n/a	f	9	0.14	0	f	1	0.6966815848427359
16	7	n/a	n/a	n/a	f	9	0.15	0	f	1	0.5807853738388076
16	8	n/a	n/a	n/a	f	9	0.16	0	f	1	0.7454964650814873
16	9	n/a	n/a	n/a	j	9	0.17	0	j	1	0.853709026569959
16	10	n/a	n/a	n/a	f	9	0.18	1	f	1	0.7867152205881212
16	11	n/a	n/a	n/a	f	9	0.17	0	f	1	0.7117261540588515
16	12	n/a	n/a	n/a	f	9	0.18	0	f	1	0.8116289929976119
16	13	n/a	n/a	n/a	j	9	0.1900000000000001	1	j	1	0.8715954427816541
16	14	n/a	n/a	n/a	f	9	0.18	1	f	1	0.7230827083540134
16	15	n/a	n/a	n/a	f	9	0.17	0	f	1	0.664320223242612
16	16	n/a	n/a	n/a	f	9	0.18	0	f	1	0.8464658519360455
16	17	n/a	n/a	n/a	j	9	0.1900000000000001	1	j	1	0.8594505952542022
16	18	n/a	n/a	n/a	f	9	0.18	1	f	1	0.7433060647545062
16	19	n/a	n/a	n/a	f	9	0.17	0	f	1	0.7563940131913114
16	20	n/a	n/a	n/a	f	9	0.18	0	f	1	0.8332216703383892
16	21	n/a	n/a	n/a	j	9	0.1900000000000001	1	j	1	0.7902390196313718
16	22	n/a	n/a	n/a	f	9	0.18	0	f	1	0.7699133134037766
16	23	n/a	n/a	n/a	f	9	0.1900000000000001	0	f	1	0.7650817743751759
16	24	n/a	n/a	n/a	f	9	0.2000000000000001	0	f	1	0.8090961911611885
16	25	n/a	n/a	n/a	j	9	0.2100000000000001	1	j	1	0.9170205195723611
16	26	n/a	n/a	n/a	f	9	0.2000000000000001	1	f	1	0.8669500721016448
16	27	n/a	n/a	n/a	f	9	0.1900000000000001	1	f	1	0.8469536529191828
16	28	n/a	n/a	n/a	f	9	0.18	1	f	1	0.8828964031590658
16	29	n/a	n/a	n/a	j	9	0.17	1	j	1	0.8866799255783917
16	30	n/a	n/a	n/a	f	9	0.16	1	f	1	0.8507500047044232
16	31	n/a	n/a	n/a	f	9	0.15	1	f	1	0.8558164636679066
16	32	n/a	n/a	n/a	f	9	0.14	1	f	1	0.89365396863559
16	33	n/a	n/a	n/a	j	9	0.13	1	j	1	0.7936581880712765
16	34	n/a	n/a	n/a	f	9	0.12	0	f	1	0.8234918795824342
16	35	n/a	n/a	n/a	f	9	0.13	0	f	1	0.8531949966618413
16	36	n/a	n/a	n/a	f	9	0.14	1	f	1	0.8166378623654964
16	37	n/a	n/a	n/a	j	9	0.13	0	j	1	0.8354579712840859
16	38	n/a	n/a	n/a	f	9	0.14	0	f	1	0.8873082793888898
16	39	n/a	n/a	n/a	f	9	0.15	1	f	1	1.091322559326727
16	40	n/a	n/a	n/a	f	9	0.14	1	f	1	0.9520928686406478
16	41	n/a	n/a	n/a	j	9	0.13	1	j	1	0.8928511354552029
16	42	n/a	n/a	n/a	f	9	0.12	1	f	1	0.8830437983133379
16	43	n/a	n/a	n/a	f	9	0.11	1	f	1	0.9279465773824995
16	44	n/a	n/a	n/a	f	9	0.1	1	f	1	0.8940454068306281
16	45	n/a	n/a	n/a	j	9	0.09000000000000002	0	j	1	0.9139996316544057
16	46	n/a	n/a	n/a	f	9	0.1	1	f	1	0.9577426360865502
16	47	n/a	n/a	n/a	f	9	0.09000000000000002	1	f	1	0.9938515978838041
16	48	n/a	n/a	n/a	f	9	0.08000000000000003	1	f	1	0.9369237120317848
16	49	n/a	n/a	n/a	j	9	0.07000000000000003	1	j	1	0.9818099554740911
16	50	n/a	n/a	n/a	f	9	0.06000000000000003	1	f	1	0.8328963746489535
16	51	n/a	n/a	n/a	f	9	0.05000000000000003	0	f	1	0.9903323603930403
16	52	n/a	n/a	n/a	f	9	0.06000000000000003	1	f	1	0.9236441784041745
16	53	n/a	n/a	n/a	j	9	0.05000000000000003	0	j	1	0.8803601801591867
16	54	n/a	n/a	n/a	f	9	0.06000000000000003	0	f	1	1.124227030732072
16	55	n/a	n/a	n/a	f	9	0.07000000000000003	2	f	1	0.9864450626610051
16	56	n/a	n/a	n/a	f	9	0.08000000000000003	1	f	1	0.9294210991174623
16	57	n/a	n/a	n/a	j	9	0.07000000000000003	1	j	1	0.8633635517162475
16	58	n/a	n/a	n/a	f	9	0.06000000000000003	0	f	1	1.067345330595344
16	59	n/a	n/a	n/a	f	9	0.07000000000000003	2	f	1	0.8782242333591057
16	60	n/a	n/a	n/a	f	9	0.08000000000000003	0	f	1	0.8982197972509312
16	61	n/a	n/a	n/a	j	9	0.09000000000000002	0	j	1	0.8631534352198287
16	62	n/a	n/a	n/a	f	9	0.1	0	f	1	0.9001008673221804
16	63	n/a	n/a	n/a	f	9	0.11	1	f	1	0.8012557382899104
16	64	n/a	n/a	n/a	f	9	0.1	0	f	1	1.038999560380034
16	65	n/a	n/a	n/a	j	9	0.11	1	j	1	0.9239133099817991
16	66	n/a	n/a	n/a	f	9	0.1	1	f	1	0.8623870944566079
16	67	n/a	n/a	n/a	f	9	0.09000000000000002	0	f	1	0.8738545514879661
16	68	n/a	n/a	n/a	f	9	0.1	0	f	1	0.9008079079067102
16	69	n/a	n/a	n/a	j	9	0.11	1	j	1	1.505415702800747
16	70	n/a	n/a	n/a	f	9	0.1	2	f	1	0.7836381685601737
16	71	n/a	n/a	n/a	f	9	0.11	0	f	1	0.7075948132869598
17	0	j	1	0.05679389025681303	j	6	0.02000000000000002	2	j	1	0.6021858957947188
17	1	n/a	n/a	n/a	f	6	0.03000000000000003	1	f	1	0.645497833547779
17	2	n/a	n/a	n/a	j	6	0.02000000000000002	2	j	1	0.6104739509710271
17	3	n/a	n/a	n/a	j	6	0.03000000000000003	1	j	1	0.6494814940679134
17	4	n/a	n/a	n/a	j	6	0.02000000000000002	2	j	1	0.5974293372801185
17	5	n/a	n/a	n/a	f	6	0.03000000000000003	1	f	1	0.5934185925443671
17	6	n/a	n/a	n/a	j	6	0.02000000000000002	1	j	1	0.6153781897364752
17	7	n/a	n/a	n/a	j	6	0.01000000000000002	2	j	1	0.6112072204814467
17	8	n/a	n/a	n/a	j	6	0.02000000000000002	2	j	1	0.6062405454704276
17	9	n/a	n/a	n/a	f	6	0.03000000000000003	1	f	1	0.6191734011326844
17	10	n/a	n/a	n/a	j	6	0.02000000000000002	2	j	1	0.5932150332801029
17	11	n/a	n/a	n/a	j	6	0.03000000000000003	1	j	1	0.5901282879522114
17	12	n/a	n/a	n/a	j	6	0.02000000000000002	1	j	1	0.593908959401233
17	13	n/a	n/a	n/a	f	6	0.01000000000000002	1	f	1	0.5029102702783348
17	14	n/a	n/a	n/a	j	6	2.42861286636753e-17	0	j	1	0.4850238540675491
17	15	n/a	n/a	n/a	j	6	0.01000000000000002	0	j	1	0.496961436067977
17	16	n/a	n/a	n/a	j	6	0.02000000000000002	0	j	1	0.5590681091052829
17	17	n/a	n/a	n/a	f	6	0.03000000000000003	1	f	1	0.6289818786644901
17	18	n/a	n/a	n/a	j	6	0.02000000000000002	2	j	1	0.5247093578527711
17	19	n/a	n/a	n/a	j	6	0.03000000000000003	0	j	1	0.6410471841245453
17	20	n/a	n/a	n/a	j	6	0.04000000000000003	2	j	1	0.6060287183918263
17	21	n/a	n/a	n/a	f	6	0.05000000000000003	1	f	1	0.5548401204478068
17	22	n/a	n/a	n/a	j	6	0.04000000000000003	1	j	1	0.4959789917711532
17	23	n/a	n/a	n/a	j	6	0.03000000000000003	0	j	1	0.5888242542287117
17	24	n/a	n/a	n/a	j	6	0.04000000000000003	1	j	1	0.6277405662822275
17	25	n/a	n/a	n/a	f	6	0.03000000000000003	2	f	1	0.6258047575847741
17	26	n/a	n/a	n/a	j	6	0.04000000000000003	1	j	1	0.5406725096345326
17	27	n/a	n/a	n/a	j	6	0.03000000000000003	0	j	1	0.5946761554550903
17	28	n/a	n/a	n/a	j	6	0.04000000000000003	1	j	1	0.5746552179316495
17	29	n/a	n/a	n/a	f	6	0.03000000000000003	1	f	1	0.5315742087559556
17	30	n/a	n/a	n/a	j	6	0.02000000000000002	0	j	1	0.5776071123718793
17	31	n/a	n/a	n/a	j	6	0.03000000000000003	1	j	1	0.5885528418748436
17	32	n/a	n/a	n/a	j	6	0.02000000000000002	1	j	1	0.6034522967129305
17	33	n/a	n/a	n/a	f	6	0.01000000000000002	2	f	1	0.569483843267335
17	34	n/a	n/a	n/a	j	6	0.02000000000000002	1	j	1	0.5574573109988705
17	35	n/a	n/a	n/a	j	6	0.01000000000000002	0	j	1	0.6114196177531994
17	36	n/a	n/a	n/a	j	6	0.02000000000000002	2	j	1	0.6093994203411057
17	37	n/a	n/a	n/a	f	6	0.03000000000000003	1	f	1	0.5903401150308127
17	38	n/a	n/a	n/a	j	6	0.02000000000000002	1	j	1	0.5542981510316167
17	39	n/a	n/a	n/a	j	6	0.01000000000000002	0	j	1	0.5792372970754514
17	40	n/a	n/a	n/a	j	6	0.02000000000000002	1	j	1	0.6392065978288883
17	41	n/a	n/a	n/a	f	6	0.01000000000000002	2	f	1	0.6142343805322525
17	42	n/a	n/a	n/a	j	6	0.02000000000000002	2	j	1	0.5891925995656493
17	43	n/a	n/a	n/a	j	6	0.03000000000000003	1	j	1	0.5801265146492369
17	44	n/a	n/a	n/a	j	6	0.02000000000000002	1	j	1	0.5940412444142567
17	45	n/a	n/a	n/a	f	6	0.01000000000000002	2	f	1	0.5531914044386212
17	46	n/a	n/a	n/a	j	6	0.02000000000000002	0	j	1	0.5910249180487881
17	47	n/a	n/a	n/a	j	6	0.03000000000000003	1	j	1	0.5799765536221457
17	48	n/a	n/a	n/a	j	6	0.02000000000000002	1	j	1	0.6237474975614532
17	49	n/a	n/a	n/a	f	6	0.01000000000000002	2	f	1	0.5159172511630459
17	50	n/a	n/a	n/a	j	6	0.02000000000000002	0	j	1	0.6034768150566379
17	51	n/a	n/a	n/a	j	6	0.03000000000000003	1	j	1	0.6486986176787468
17	52	n/a	n/a	n/a	j	6	0.02000000000000002	2	j	1	0.6838225693063578
17	53	n/a	n/a	n/a	f	6	0.03000000000000003	2	f	1	0.6649582703512351
17	54	n/a	n/a	n/a	j	6	0.04000000000000003	2	j	1	0.5886554767985217
17	55	n/a	n/a	n/a	j	6	0.05000000000000003	1	j	1	0.5886566171866434
17	56	n/a	n/a	n/a	j	6	0.04000000000000003	1	j	1	0.66724845463159
17	57	n/a	n/a	n/a	f	6	0.03000000000000003	2	f	1	0.5447696387655014
17	58	n/a	n/a	n/a	j	6	0.04000000000000003	0	j	1	0.5962364913912097
17	59	n/a	n/a	n/a	j	6	0.05000000000000003	1	j	1	0.569524612139503
17	60	n/a	n/a	n/a	j	6	0.04000000000000003	1	j	1	0.6305265342634812
17	61	n/a	n/a	n/a	f	6	0.03000000000000003	2	f	1	0.5154648022080437
17	62	n/a	n/a	n/a	j	6	0.04000000000000003	0	j	1	0.5714592804488348
17	63	n/a	n/a	n/a	j	6	0.05000000000000003	1	j	1	0.5704012854457687
17	64	n/a	n/a	n/a	j	6	0.04000000000000003	1	j	1	0.6245221061371922
17	65	n/a	n/a	n/a	f	6	0.03000000000000003	2	f	1	0.6382421146445267
17	66	n/a	n/a	n/a	j	6	0.04000000000000003	2	j	1	0.6689755723173221
17	67	n/a	n/a	n/a	j	6	0.05000000000000003	2	j	1	0.6173074412026835
17	68	n/a	n/a	n/a	j	6	0.06000000000000003	1	j	1	0.6232571307036778
17	69	n/a	n/a	n/a	f	6	0.05000000000000003	1	f	1	0.5683904962343149
17	70	n/a	n/a	n/a	j	6	0.04000000000000003	1	j	1	0.5721611892877263
17	71	n/a	n/a	n/a	j	6	0.03000000000000003	1	j	1	0.5442735699671175
18	0	j	1	0.01976720118636877	j	2	0.02000000000000002	2	j	1	0.4052311880168418
18	1	n/a	n/a	n/a	f	2	0.03000000000000003	1	f	1	0.4021179286683036
18	2	n/a	n/a	n/a	j	2	0.02000000000000002	1	j	1	0.4311422297660101
18	3	n/a	n/a	n/a	j	2	0.01000000000000002	2	j	1	0.4283046592263418
18	4	n/a	n/a	n/a	j	2	0.02000000000000002	2	j	1	0.4243070289530806
18	5	n/a	n/a	n/a	f	2	0.03000000000000003	2	f	1	0.3670940460906422
18	6	n/a	n/a	n/a	j	2	0.04000000000000003	1	j	1	0.4186219094772241
18	7	n/a	n/a	n/a	j	2	0.03000000000000003	1	j	1	0.4078033332398263
18	8	n/a	n/a	n/a	j	2	0.02000000000000002	1	j	1	0.3809825469315911
18	9	n/a	n/a	n/a	f	2	0.01000000000000002	1	f	1	0.3369954994586806
18	10	n/a	n/a	n/a	j	2	2.42861286636753e-17	0	j	1	0.4050224970051204
18	11	n/a	n/a	n/a	j	2	0.01000000000000002	2	j	1	0.3771237589007796
18	12	n/a	n/a	n/a	j	2	0.02000000000000002	1	j	1	0.3588843925917899
18	13	n/a	n/a	n/a	f	2	0.01000000000000002	0	f	1	0.3299929467002585
18	14	n/a	n/a	n/a	j	2	0.02000000000000002	0	j	1	0.3771217632229309
18	15	n/a	n/a	n/a	j	2	0.03000000000000003	1	j	1	0.3980111062392098
18	16	n/a	n/a	n/a	j	2	0.02000000000000002	1	j	1	0.3690173105205758
18	17	n/a	n/a	n/a	f	2	0.01000000000000002	0	f	1	0.3888612028013085
18	18	n/a	n/a	n/a	j	2	0.02000000000000002	1	j	1	0.3530031263735509
18	19	n/a	n/a	n/a	j	2	0.01000000000000002	0	j	1	0.381801915737924
18	20	n/a	n/a	n/a	j	2	0.02000000000000002	1	j	1	0.3697796599253707
18	21	n/a	n/a	n/a	f	2	0.01000000000000002	0	f	1	0.4215176398065523
18	22	n/a	n/a	n/a	j	2	0.02000000000000002	2	j	1	0.3898265412772162
18	23	n/a	n/a	n/a	j	2	0.03000000000000003	1	j	1	0.3787516628281082
18	24	n/a	n/a	n/a	j	2	0.02000000000000002	1	j	1	0.3848818187370853
18	25	n/a	n/a	n/a	f	2	0.01000000000000002	1	f	1	0.3806823397799235
18	26	n/a	n/a	n/a	j	2	2.42861286636753e-17	0	j	1	0.3944328536672401
18	27	n/a	n/a	n/a	j	2	0.01000000000000002	1	j	1	0.4306997592066182
18	28	n/a	n/a	n/a	j	2	2.42861286636753e-17	2	j	1	0.3866180595268816
18	29	n/a	n/a	n/a	f	2	0.01000000000000002	1	f	1	0.3836510549444938
18	30	n/a	n/a	n/a	j	2	2.42861286636753e-17	0	j	1	0.3483024468732765
18	31	n/a	n/a	n/a	j	2	0.01000000000000002	0	j	1	0.4436759496147715
18	32	n/a	n/a	n/a	j	2	0.02000000000000002	2	j	1	0.346545108904138
18	33	n/a	n/a	n/a	f	2	0.03000000000000003	0	f	1	0.3675630306724997
18	34	n/a	n/a	n/a	j	2	0.04000000000000003	1	j	1	0.4455350672169516
18	35	n/a	n/a	n/a	j	2	0.03000000000000003	2	j	1	0.3791824444106169
18	36	n/a	n/a	n/a	j	2	0.04000000000000003	1	j	1	0.3365661433617788
18	37	n/a	n/a	n/a	f	2	0.03000000000000003	0	f	1	0.3905623766595454
18	38	n/a	n/a	n/a	j	2	0.04000000000000003	1	j	1	0.3713565314874359
18	39	n/a	n/a	n/a	j	2	0.03000000000000003	1	j	1	0.3593023448083841
18	40	n/a	n/a	n/a	j	2	0.02000000000000002	0	j	1	0.381503419168439
18	41	n/a	n/a	n/a	f	2	0.03000000000000003	1	f	1	0.3554407058090874
18	42	n/a	n/a	n/a	j	2	0.02000000000000002	0	j	1	0.3673463569448359
18	43	n/a	n/a	n/a	j	2	0.03000000000000003	1	j	1	0.3793275587886455
18	44	n/a	n/a	n/a	j	2	0.02000000000000002	1	j	1	0.3684251640297589
18	45	n/a	n/a	n/a	f	2	0.01000000000000002	0	f	1	0.2442785306557198
18	46	n/a	n/a	n/a	j	2	0.02000000000000002	0	j	1	0.4393190971095464
18	47	n/a	n/a	n/a	j	2	0.03000000000000003	2	j	1	0.3552371465430042
18	48	n/a	n/a	n/a	j	2	0.04000000000000003	1	j	1	0.4015029744168714
18	49	n/a	n/a	n/a	f	2	0.03000000000000003	1	f	1	0.4381838408153271
18	50	n/a	n/a	n/a	j	2	0.02000000000000002	2	j	1	0.4199096926713537
18	51	n/a	n/a	n/a	j	2	0.03000000000000003	2	j	1	0.3933158435829682
18	52	n/a	n/a	n/a	j	2	0.04000000000000003	1	j	1	0.4531306217568272
18	53	n/a	n/a	n/a	f	2	0.03000000000000003	2	f	1	0.3700473660173884
18	54	n/a	n/a	n/a	j	2	0.04000000000000003	1	j	1	0.3922549976086884
18	55	n/a	n/a	n/a	j	2	0.03000000000000003	1	j	1	0.4200605089890814
18	56	n/a	n/a	n/a	j	2	0.02000000000000002	2	j	1	0.3910450458970445
18	57	n/a	n/a	n/a	f	2	0.03000000000000003	1	f	1	0.4300263600689505
18	58	n/a	n/a	n/a	j	2	0.02000000000000002	2	j	1	0.4039163206070953
18	59	n/a	n/a	n/a	j	2	0.03000000000000003	1	j	1	0.3691353406820781
18	60	n/a	n/a	n/a	j	2	0.02000000000000002	1	j	1	0.4455527432319286
18	61	n/a	n/a	n/a	f	2	0.01000000000000002	2	f	1	0.4208268497523022
18	62	n/a	n/a	n/a	j	2	0.02000000000000002	2	j	1	0.4338814418379116
18	63	n/a	n/a	n/a	j	2	0.03000000000000003	2	j	1	0.3680134839478342
18	64	n/a	n/a	n/a	j	2	0.04000000000000003	1	j	1	0.4208134501932363
18	65	n/a	n/a	n/a	f	2	0.03000000000000003	2	f	1	0.3637609769475603
18	66	n/a	n/a	n/a	j	2	0.04000000000000003	1	j	1	0.416602567355767
18	67	n/a	n/a	n/a	j	2	0.03000000000000003	1	j	1	0.436696774811935
18	68	n/a	n/a	n/a	j	2	0.02000000000000002	2	j	1	0.3707156334085084
18	69	n/a	n/a	n/a	f	2	0.03000000000000003	1	f	1	0.399892176310459
18	70	n/a	n/a	n/a	j	2	0.02000000000000002	1	j	1	0.4156400798501636
18	71	n/a	n/a	n/a	j	2	0.01000000000000002	2	j	1	0.4116127994866474
19	0	j	1	0.7455839898648264	j	12	0.16	0	j	1	0.7871380194537778
19	1	n/a	n/a	n/a	j	12	0.17	0	f	0	0.7670902828103863
19	2	n/a	n/a	n/a	f	12	0.18	0	j	0	0.8048861636143556
19	3	n/a	n/a	n/a	j	12	0.1900000000000001	1	j	1	0.7458836268215236
19	4	n/a	n/a	n/a	j	12	0.18	0	j	1	0.7428804149185453
19	5	n/a	n/a	n/a	j	12	0.1900000000000001	0	j	1	0.7708025309766526
19	6	n/a	n/a	n/a	j	12	0.2000000000000001	0	j	1	0.7928895665327218
19	7	n/a	n/a	n/a	j	12	0.2100000000000001	1	j	1	0.7157337627268134
19	8	n/a	n/a	n/a	f	12	0.2000000000000001	0	f	1	0.7287641215671101
19	9	n/a	n/a	n/a	j	12	0.2100000000000001	0	j	1	0.7075010163707702
19	10	n/a	n/a	n/a	j	12	0.2200000000000001	0	j	1	0.70256940829222
19	11	n/a	n/a	n/a	j	12	0.2300000000000001	0	j	1	0.8424944505868552
19	12	n/a	n/a	n/a	j	12	0.2400000000000001	1	j	1	0.825489839427064
19	13	n/a	n/a	n/a	j	12	0.2300000000000001	1	j	1	0.8134014411079988
19	14	n/a	n/a	n/a	f	12	0.2200000000000001	1	f	1	0.8055301977610725
19	15	n/a	n/a	n/a	j	12	0.2100000000000001	1	j	1	0.7703369675600698
19	16	n/a	n/a	n/a	j	12	0.2000000000000001	0	j	1	0.7341749777197037
19	17	n/a	n/a	n/a	j	12	0.2100000000000001	0	j	1	0.7853416231946539
19	18	n/a	n/a	n/a	j	12	0.2200000000000001	1	j	1	0.852221390372506
19	19	n/a	n/a	n/a	j	12	0.2100000000000001	1	j	1	0.767978930190111
19	20	n/a	n/a	n/a	f	12	0.2000000000000001	0	f	1	0.8771229036110526
19	21	n/a	n/a	n/a	j	12	0.2100000000000001	1	j	1	0.7762210847486131
19	22	n/a	n/a	n/a	j	12	0.2000000000000001	0	j	1	0.8679889656059459
19	23	n/a	n/a	n/a	j	12	0.2100000000000001	1	j	1	0.8401184521053437
19	24	n/a	n/a	n/a	j	12	0.2000000000000001	1	j	1	0.8598867936789247
19	25	n/a	n/a	n/a	j	12	0.1900000000000001	1	j	1	0.848700157202984
19	26	n/a	n/a	n/a	f	12	0.18	1	f	1	0.8799844222994579
19	27	n/a	n/a	n/a	j	12	0.17	1	j	1	1.876724337989799
19	28	n/a	n/a	n/a	j	12	0.16	2	j	1	0.7687310161027199
19	29	n/a	n/a	n/a	j	12	0.17	0	j	1	0.7813605285473386
19	30	n/a	n/a	n/a	j	12	0.18	0	j	1	0.8515462806526557
19	31	n/a	n/a	n/a	j	12	0.1900000000000001	1	j	1	0.8254256926011294
19	32	n/a	n/a	n/a	f	12	0.18	1	f	1	0.8541486461599561
19	33	n/a	n/a	n/a	j	12	0.17	1	j	1	0.7703991187081556
19	34	n/a	n/a	n/a	j	12	0.16	0	j	1	0.7102054466076879
19	35	n/a	n/a	n/a	j	12	0.17	0	j	1	0.7703093131494825
19	36	n/a	n/a	n/a	j	12	0.18	0	j	1	0.8452821291493819
19	37	n/a	n/a	n/a	j	12	0.1900000000000001	1	j	1	0.9458640691664186
19	38	n/a	n/a	n/a	f	12	0.18	1	f	1	0.8701682471491949
19	39	n/a	n/a	n/a	j	12	0.17	1	j	1	0.7951860229486556
19	40	n/a	n/a	n/a	j	12	0.16	0	j	1	0.7602328444299928
19	41	n/a	n/a	n/a	j	12	0.17	0	j	1	0.9310304717391773
19	42	n/a	n/a	n/a	j	12	0.18	1	j	1	0.8408326201151795
19	43	n/a	n/a	n/a	j	12	0.17	1	j	1	0.8056402452057227
19	44	n/a	n/a	n/a	f	12	0.16	0	f	1	0.8749193888206719
19	45	n/a	n/a	n/a	j	12	0.17	1	j	1	0.9930450584415667
19	46	n/a	n/a	n/a	j	12	0.16	1	j	1	0.8778316547768554
19	47	n/a	n/a	n/a	j	12	0.15	1	j	1	0.7947797597089448
19	48	n/a	n/a	n/a	j	12	0.14	0	j	1	0.8878305771104351
19	49	n/a	n/a	n/a	j	12	0.15	1	j	1	1.003625008482231
19	50	n/a	n/a	n/a	f	12	0.14	1	f	1	0.8955658291843065
19	51	n/a	n/a	n/a	j	12	0.13	1	j	1	0.9255443499760077
19	52	n/a	n/a	n/a	j	12	0.12	1	j	1	0.8194087202055016
19	53	n/a	n/a	n/a	j	12	0.11	0	j	1	0.7205678676282332
19	54	n/a	n/a	n/a	j	12	0.12	0	j	1	0.9013741105682129
19	55	n/a	n/a	n/a	j	12	0.13	1	j	1	0.9213733807209792
19	56	n/a	n/a	n/a	f	12	0.12	1	f	1	0.9572602519456268
19	57	n/a	n/a	n/a	j	12	0.11	1	j	1	0.8640258320701832
19	58	n/a	n/a	n/a	j	12	0.1	0	j	1	0.9411249015702197
19	59	n/a	n/a	n/a	j	12	0.11	1	j	1	0.9311416595719493
19	60	n/a	n/a	n/a	j	12	0.1	1	j	1	0.8557973621691417
19	61	n/a	n/a	n/a	j	12	0.09000000000000002	0	j	1	0.8209165982916602
19	62	n/a	n/a	n/a	f	12	0.1	0	f	1	0.9069024266882479
19	63	n/a	n/a	n/a	j	12	0.11	1	j	1	0.9770197555117193
19	64	n/a	n/a	n/a	j	12	0.1	1	j	1	0.7969259700003022
19	65	n/a	n/a	n/a	j	12	0.09000000000000002	0	j	1	0.8678444214210685
19	66	n/a	n/a	n/a	j	12	0.1	0	j	1	0.8708336635709202
19	67	n/a	n/a	n/a	j	12	0.11	0	j	1	1.203688984250221
19	68	n/a	n/a	n/a	f	12	0.12	0	j	0	0.9025393020483534
19	69	n/a	n/a	n/a	j	12	0.13	0	f	0	0.8975894477616748
19	70	n/a	n/a	n/a	j	12	0.12	1	j	1	1.326437501888904
19	71	n/a	n/a	n/a	j	12	0.11	2	j	1	0.7660505340154486
20	0	f	1	0.02822260830726009	f	3	1.040834085586084e-17	2	f	1	0.5337112959423393
20	1	n/a	n/a	n/a	f	3	0.01000000000000001	2	f	1	0.4016349743324099
20	2	n/a	n/a	n/a	j	3	0.02000000000000001	1	j	1	0.42168841291641
20	3	n/a	n/a	n/a	f	3	0.01000000000000001	2	f	1	0.4026559067251583
20	4	n/a	n/a	n/a	f	3	0.02000000000000001	1	f	1	0.4225773453927104
20	5	n/a	n/a	n/a	f	3	0.01000000000000001	2	f	1	0.3774815556489557
20	6	n/a	n/a	n/a	f	3	0.02000000000000001	1	f	1	0.4075578647143629
20	7	n/a	n/a	n/a	f	3	0.01000000000000001	2	f	1	0.3864986038797724
20	8	n/a	n/a	n/a	j	3	0.02000000000000001	1	j	1	0.3744164776953767
20	9	n/a	n/a	n/a	f	3	0.01000000000000001	1	f	1	0.3934241804454359
20	10	n/a	n/a	n/a	f	3	1.040834085586084e-17	2	f	1	0.3765167873680184
20	11	n/a	n/a	n/a	f	3	0.01000000000000001	1	f	1	0.3150863644368656
20	12	n/a	n/a	n/a	f	3	1.040834085586084e-17	0	f	1	0.449502762305201
20	13	n/a	n/a	n/a	f	3	0.01000000000000001	2	f	1	0.3814532420947216
20	14	n/a	n/a	n/a	j	3	0.02000000000000001	1	j	1	0.3843655080518147
20	15	n/a	n/a	n/a	f	3	0.01000000000000001	1	f	1	0.4042684154137532
20	16	n/a	n/a	n/a	f	3	1.040834085586084e-17	2	f	1	0.368302857413255
20	17	n/a	n/a	n/a	f	3	0.01000000000000001	0	f	1	0.3980755381626295
20	18	n/a	n/a	n/a	f	3	0.02000000000000001	1	f	1	0.4592490886871019
20	19	n/a	n/a	n/a	f	3	0.01000000000000001	2	f	1	0.3842414908522187
20	20	n/a	n/a	n/a	j	3	0.02000000000000001	1	j	1	0.3961919022185612
20	21	n/a	n/a	n/a	f	3	0.01000000000000001	2	f	1	0.4093055093853764
20	22	n/a	n/a	n/a	f	3	0.02000000000000001	2	f	1	0.3811524647489932
20	23	n/a	n/a	n/a	f	3	0.03000000000000001	1	f	1	0.4030641656436273
20	24	n/a	n/a	n/a	f	3	0.02000000000000001	1	f	1	0.4230708483173657
20	25	n/a	n/a	n/a	f	3	0.01000000000000001	1	j	0	0.4931830453942894
20	26	n/a	n/a	n/a	j	3	0.02000000000000001	1	f	0	0.05792800616291061
20	27	n/a	n/a	n/a	f	3	0.03000000000000001	0	f	1	0.7140802000703843
20	28	n/a	n/a	n/a	f	3	0.04000000000000001	2	f	1	0.3430073401077607
20	29	n/a	n/a	n/a	f	3	0.05000000000000002	2	j	0	0.4725850715221895
20	30	n/a	n/a	n/a	f	3	0.04000000000000001	2	f	1	0.3969724978314844
20	31	n/a	n/a	n/a	f	3	0.05000000000000002	1	f	1	0.3869011608576329
20	32	n/a	n/a	n/a	j	3	0.04000000000000001	1	f	0	0.365906046850796
20	33	n/a	n/a	n/a	f	3	0.03000000000000001	1	f	1	0.4509179838623822
20	34	n/a	n/a	n/a	f	3	0.02000000000000001	2	f	1	0.3575564107204627
20	35	n/a	n/a	n/a	f	3	0.03000000000000001	1	f	1	0.4338854331963375
20	36	n/a	n/a	n/a	f	3	0.02000000000000001	1	j	0	0.3588265178996153
20	37	n/a	n/a	n/a	f	3	0.03000000000000001	1	f	1	1.066778842836356
20	38	n/a	n/a	n/a	j	3	0.02000000000000001	1	f	0	0.3688850255075522
20	39	n/a	n/a	n/a	f	3	0.03000000000000001	1	f	1	1.627674993969777
20	40	n/a	n/a	n/a	f	3	0.02000000000000001	2	f	1	0.3936325863605816
20	41	n/a	n/a	n/a	f	3	0.03000000000000001	2	j	0	0.3905016509970665
20	42	n/a	n/a	n/a	f	3	0.02000000000000001	1	f	1	0.4105724804985584
20	43	n/a	n/a	n/a	f	3	0.01000000000000001	2	f	1	0.4075698387896409
20	44	n/a	n/a	n/a	j	3	0.02000000000000001	2	f	0	0.3962506322022818
20	45	n/a	n/a	n/a	f	3	0.03000000000000001	1	f	1	0.4414875449665487
20	46	n/a	n/a	n/a	f	3	0.02000000000000001	2	f	1	0.3993750103345519
20	47	n/a	n/a	n/a	f	3	0.03000000000000001	1	f	1	0.3954765938206037
20	48	n/a	n/a	n/a	f	3	0.02000000000000001	1	j	0	0.4165897379898524
20	49	n/a	n/a	n/a	f	3	0.01000000000000001	2	f	1	0.4690387498158088
20	50	n/a	n/a	n/a	j	3	0.02000000000000001	2	f	0	0.3950934234389933
20	51	n/a	n/a	n/a	f	3	0.03000000000000001	1	f	1	0.4303123123709156
20	52	n/a	n/a	n/a	f	3	0.02000000000000001	2	f	1	0.4183402336311701
20	53	n/a	n/a	n/a	f	3	0.03000000000000001	2	j	0	0.431370022277406
20	54	n/a	n/a	n/a	f	3	0.02000000000000001	2	f	1	0.398277957040591
20	55	n/a	n/a	n/a	f	3	0.03000000000000001	1	f	1	0.4281561236848574
20	56	n/a	n/a	n/a	j	3	0.02000000000000001	1	f	0	0.409408144309964
20	57	n/a	n/a	n/a	f	3	0.03000000000000001	1	f	1	0.4621827369201128
20	58	n/a	n/a	n/a	f	3	0.02000000000000001	2	f	1	0.3871759943758661
20	59	n/a	n/a	n/a	f	3	0.03000000000000001	1	f	1	0.4093191940428369
20	60	n/a	n/a	n/a	f	3	0.02000000000000001	1	j	0	0.4291856089866997
20	61	n/a	n/a	n/a	f	3	0.03000000000000001	2	f	1	0.4180685361807264
20	62	n/a	n/a	n/a	j	3	0.04000000000000001	2	f	0	0.3922333302352854
20	63	n/a	n/a	n/a	f	3	0.03000000000000001	1	f	1	0.4626192204423205
20	64	n/a	n/a	n/a	f	3	0.02000000000000001	2	f	1	0.4147317607767036
20	65	n/a	n/a	n/a	f	3	0.03000000000000001	2	j	0	0.4300474572482926
20	66	n/a	n/a	n/a	f	3	0.02000000000000001	2	f	1	1.339004292990467
20	67	n/a	n/a	n/a	f	3	0.03000000000000001	2	f	1	0.3898516298140748
20	68	n/a	n/a	n/a	j	3	0.04000000000000001	2	f	0	0.4338158695254606
20	69	n/a	n/a	n/a	f	3	0.03000000000000001	2	j	0	0.4618945038428137
20	70	n/a	n/a	n/a	f	3	0.04000000000000001	2	j	0	0.4428873712849963
20	71	n/a	n/a	n/a	f	3	0.05000000000000002	2	f	1	0.3708131365865484
21	0	f	1	0.03972855343545234	f	1	0.04000000000000001	1	f	1	0.4251283934390813
21	1	n/a	n/a	n/a	j	1	0.03000000000000001	2	j	1	0.4392324276177533
21	2	n/a	n/a	n/a	f	1	0.04000000000000001	2	f	1	0.3970483336361212
21	3	n/a	n/a	n/a	f	1	0.05000000000000002	1	f	1	0.369150450824236
21	4	n/a	n/a	n/a	f	1	0.04000000000000001	1	f	1	0.4310159317910802
21	5	n/a	n/a	n/a	j	1	0.03000000000000001	2	j	1	0.4439014613499239
21	6	n/a	n/a	n/a	f	1	0.04000000000000001	2	f	1	0.3878613675869929
21	7	n/a	n/a	n/a	f	1	0.05000000000000002	1	f	1	0.3859110189423518
21	8	n/a	n/a	n/a	f	1	0.04000000000000001	1	j	0	0.4619024865587562
21	9	n/a	n/a	n/a	j	1	0.03000000000000001	1	f	0	0.1849467068159356
21	10	n/a	n/a	n/a	f	1	0.04000000000000001	0	f	1	0.6678941993586704
21	11	n/a	n/a	n/a	f	1	0.05000000000000002	0	j	0	0.3737234068639737
21	12	n/a	n/a	n/a	f	1	0.06000000000000002	1	f	1	0.3318030276159334
21	13	n/a	n/a	n/a	j	1	0.05000000000000002	1	f	0	0.3359412107156459
21	14	n/a	n/a	n/a	f	1	0.06000000000000002	1	f	1	0.2447295541260246
21	15	n/a	n/a	n/a	f	1	0.05000000000000002	0	f	1	0.7467825376943438
21	16	n/a	n/a	n/a	f	1	0.06000000000000002	0	j	0	0.3536973375930756
21	17	n/a	n/a	n/a	j	1	0.07000000000000002	0	f	0	0.348829876342279
21	18	n/a	n/a	n/a	f	1	0.06000000000000002	1	f	1	0.3878060587676373
21	19	n/a	n/a	n/a	f	1	0.05000000000000002	1	f	1	0.4196365697353031
21	20	n/a	n/a	n/a	f	1	0.04000000000000001	1	f	1	0.3776030069748231
21	21	n/a	n/a	n/a	j	1	0.03000000000000001	1	j	1	0.4073511693823093
21	22	n/a	n/a	n/a	f	1	0.02000000000000001	1	f	1	0.384784600655621
21	23	n/a	n/a	n/a	f	1	0.01000000000000001	1	f	1	0.3585559608372932
21	24	n/a	n/a	n/a	f	1	1.040834085586084e-17	0	f	1	0.4246976118565726
21	25	n/a	n/a	n/a	j	1	0.01000000000000001	2	j	1	0.4310646833801002
21	26	n/a	n/a	n/a	f	1	0.02000000000000001	2	f	1	0.3644811319945802
21	27	n/a	n/a	n/a	f	1	0.03000000000000001	1	f	1	0.375394930632865
21	28	n/a	n/a	n/a	f	1	0.02000000000000001	1	f	1	0.3974081260630555
21	29	n/a	n/a	n/a	j	1	0.01000000000000001	2	j	1	0.4535112262656185
21	30	n/a	n/a	n/a	f	1	0.02000000000000001	2	f	1	0.3863352432927059
21	31	n/a	n/a	n/a	f	1	0.03000000000000001	1	f	1	0.3690757554068114
21	32	n/a	n/a	n/a	f	1	0.02000000000000001	1	f	1	0.428397030657834
21	33	n/a	n/a	n/a	j	1	0.01000000000000001	2	j	1	0.3844727045270702
21	34	n/a	n/a	n/a	f	1	0.02000000000000001	1	f	1	0.36391663991526
21	35	n/a	n/a	n/a	f	1	0.01000000000000001	0	f	1	0.4192921725471024
21	36	n/a	n/a	n/a	f	1	0.02000000000000001	2	f	1	0.3443931966721721
21	37	n/a	n/a	n/a	j	1	0.03000000000000001	0	j	1	0.4129074250095073
21	38	n/a	n/a	n/a	f	1	0.04000000000000001	1	f	1	0.4331980643046336
21	39	n/a	n/a	n/a	f	1	0.03000000000000001	2	f	1	0.4272566426179765
21	40	n/a	n/a	n/a	f	1	0.04000000000000001	1	f	1	0.3751383433236697
21	41	n/a	n/a	n/a	j	1	0.03000000000000001	1	j	1	0.4030849777254844
21	42	n/a	n/a	n/a	f	1	0.02000000000000001	1	f	1	0.3772087178103902
21	43	n/a	n/a	n/a	f	1	0.01000000000000001	0	f	1	0.3668702449385819
21	44	n/a	n/a	n/a	f	1	0.02000000000000001	0	f	1	0.421044093674027
21	45	n/a	n/a	n/a	j	1	0.03000000000000001	2	j	1	0.4121399438590743
21	46	n/a	n/a	n/a	f	1	0.04000000000000001	1	f	1	0.3786233691735106
21	47	n/a	n/a	n/a	f	1	0.03000000000000001	1	f	1	0.3386598958031755
21	48	n/a	n/a	n/a	f	1	0.02000000000000001	0	f	1	0.4331342025752747
21	49	n/a	n/a	n/a	j	1	0.03000000000000001	2	j	1	0.3829420186812058
21	50	n/a	n/a	n/a	f	1	0.04000000000000001	1	f	1	0.3809337953425711
21	51	n/a	n/a	n/a	f	1	0.03000000000000001	1	f	1	0.3997396494105487
21	52	n/a	n/a	n/a	f	1	0.02000000000000001	1	f	1	0.3569474435071243
21	53	n/a	n/a	n/a	j	1	0.01000000000000001	0	j	1	0.4341263401693141
21	54	n/a	n/a	n/a	f	1	0.02000000000000001	2	f	1	0.3895619712520784
21	55	n/a	n/a	n/a	f	1	0.03000000000000001	1	f	1	0.3719874511698436
21	56	n/a	n/a	n/a	f	1	0.02000000000000001	1	f	1	0.4268312778785912
21	57	n/a	n/a	n/a	j	1	0.01000000000000001	2	j	1	0.4218053026897906
21	58	n/a	n/a	n/a	f	1	0.02000000000000001	2	f	1	0.3157452236264362
21	59	n/a	n/a	n/a	f	1	0.03000000000000001	0	f	1	0.8336818169118487
21	60	n/a	n/a	n/a	f	1	0.04000000000000001	2	f	1	0.4718101778489654
21	61	n/a	n/a	n/a	j	1	0.05000000000000002	2	j	1	0.4696075183501307
21	62	n/a	n/a	n/a	f	1	0.06000000000000002	2	f	1	0.4255848337515999
21	63	n/a	n/a	n/a	f	1	0.07000000000000002	1	f	1	0.2783268112634687
21	64	n/a	n/a	n/a	f	1	0.06000000000000002	0	f	1	0.4525875119525153
