blockLoop_thisRepN	trialLoop_thisRepN	firstKey	readyKey_corr	readyKey_rt	targetKey	blockType	margin	outcome	trialResp_keys	trialResp_corr	trialResp_rt
0	0	f	1	3.306115821702406	f	11	0.1	0	f	1	0.8942423760890961
0	1	n/a	n/a	n/a	f	11	0.11	0	j	0	0.9463703806977719
0	2	n/a	n/a	n/a	j	11	0.1	0	f	0	0.9592186356894672
0	3	n/a	n/a	n/a	f	11	0.09000000000000001	1	f	1	0.9791287842672318
0	4	n/a	n/a	n/a	f	11	0.08000000000000002	1	f	1	0.9662822396494448
0	5	n/a	n/a	n/a	f	11	0.07000000000000002	1	f	1	0.9219893156550825
0	6	n/a	n/a	n/a	f	11	0.06000000000000002	0	f	1	0.9740052765700966
0	7	n/a	n/a	n/a	f	11	0.07000000000000002	1	f	1	0.9302340832073241
0	8	n/a	n/a	n/a	j	11	0.06000000000000002	1	j	1	0.8318864579778165
0	9	n/a	n/a	n/a	f	11	0.05000000000000002	0	f	1	0.956808126764372
0	10	n/a	n/a	n/a	f	11	0.06000000000000002	1	f	1	0.9427356582600623
0	11	n/a	n/a	n/a	f	11	0.05000000000000002	1	f	1	0.9248887686990201
0	12	n/a	n/a	n/a	f	11	0.04000000000000001	0	f	1	0.9926578546874225
0	13	n/a	n/a	n/a	f	11	0.05000000000000002	1	f	1	0.9496450237929821
0	14	n/a	n/a	n/a	j	11	0.04000000000000001	1	j	1	0.9065492288209498
0	15	n/a	n/a	n/a	f	11	0.03000000000000001	0	f	1	0.9114956902340055
0	16	n/a	n/a	n/a	f	11	0.04000000000000001	0	f	1	0.9094732005614787
0	17	n/a	n/a	n/a	f	11	0.05000000000000002	0	f	1	0.9623621334321797
0	18	n/a	n/a	n/a	f	11	0.06000000000000002	1	f	1	4.559556534979492
0	19	n/a	n/a	n/a	f	11	0.05000000000000002	2	f	1	0.9268066273070872
0	20	n/a	n/a	n/a	j	11	0.06000000000000002	1	j	1	0.8936604897025973
0	21	n/a	n/a	n/a	f	11	0.05000000000000002	0	f	1	0.8745899570640177
0	22	n/a	n/a	n/a	f	11	0.06000000000000002	0	f	1	0.9759154375642538
0	23	n/a	n/a	n/a	f	11	0.07000000000000002	1	f	1	0.8680095954332501
0	24	n/a	n/a	n/a	f	11	0.06000000000000002	0	f	1	0.9368822982069105
0	25	n/a	n/a	n/a	f	11	0.07000000000000002	1	f	1	0.8986867787316442
0	26	n/a	n/a	n/a	j	11	0.06000000000000002	0	j	1	0.9587741671130061
0	27	n/a	n/a	n/a	f	11	0.07000000000000002	1	f	1	0.882688753772527
0	28	n/a	n/a	n/a	f	11	0.06000000000000002	0	f	1	0.9104798836633563
0	29	n/a	n/a	n/a	f	11	0.07000000000000002	0	f	1	0.8846847293898463
0	30	n/a	n/a	n/a	f	11	0.08000000000000002	0	f	1	0.9449560064822435
0	31	n/a	n/a	n/a	f	11	0.09000000000000001	1	f	1	0.9001855421811342
0	32	n/a	n/a	n/a	j	11	0.08000000000000002	0	j	1	0.9204024565406144
0	33	n/a	n/a	n/a	f	11	0.09000000000000001	1	f	1	0.909274201374501
0	34	n/a	n/a	n/a	f	11	0.08000000000000002	1	f	1	0.9542992587666959
0	35	n/a	n/a	n/a	f	11	0.07000000000000002	1	f	1	0.9041295968927443
0	36	n/a	n/a	n/a	f	11	0.06000000000000002	0	f	1	0.9091829701792449
0	37	n/a	n/a	n/a	f	11	0.07000000000000002	0	f	1	1.010197122814134
0	38	n/a	n/a	n/a	j	11	0.08000000000000002	1	j	1	0.8922039207536727
0	39	n/a	n/a	n/a	f	11	0.07000000000000002	0	f	1	0.9202225594781339
0	40	n/a	n/a	n/a	f	11	0.08000000000000002	1	f	1	0.9570019938983023
0	41	n/a	n/a	n/a	f	11	0.07000000000000002	1	f	1	0.9768055153544992
0	42	n/a	n/a	n/a	f	11	0.06000000000000002	1	f	1	0.9238535754848272
0	43	n/a	n/a	n/a	f	11	0.05000000000000002	0	f	1	0.9284670418128371
0	44	n/a	n/a	n/a	j	11	0.06000000000000002	1	j	1	1.013677322072908
0	45	n/a	n/a	n/a	f	11	0.05000000000000002	1	f	1	0.8608470624312758
0	46	n/a	n/a	n/a	f	11	0.04000000000000001	0	f	1	0.9993485496379435
0	47	n/a	n/a	n/a	f	11	0.05000000000000002	1	f	1	0.8486479767598212
0	48	n/a	n/a	n/a	f	11	0.04000000000000001	0	f	1	0.9007258042693138
0	49	n/a	n/a	n/a	f	11	0.05000000000000002	0	f	1	0.9406758206896484
0	50	n/a	n/a	n/a	j	11	0.06000000000000002	1	j	1	0.9075613289605826
0	51	n/a	n/a	n/a	f	11	0.05000000000000002	0	f	1	0.8313747057691216
0	52	n/a	n/a	n/a	f	11	0.06000000000000002	0	f	1	0.9964827382937074
0	53	n/a	n/a	n/a	f	11	0.07000000000000002	1	f	1	0.9622512301430106
0	54	n/a	n/a	n/a	f	11	0.06000000000000002	1	f	1	0.9752300602849573
0	55	n/a	n/a	n/a	f	11	0.05000000000000002	1	f	1	0.9403562252409756
0	56	n/a	n/a	n/a	j	11	0.04000000000000001	0	j	1	0.9851090132724494
0	57	n/a	n/a	n/a	f	11	0.05000000000000002	1	f	1	0.8629958506207913
0	58	n/a	n/a	n/a	f	11	0.04000000000000001	0	f	1	1.004263079958037
0	59	n/a	n/a	n/a	f	11	0.05000000000000002	1	f	1	0.8808766670990735
0	60	n/a	n/a	n/a	f	11	0.04000000000000001	0	f	1	0.9248465741984546
0	61	n/a	n/a	n/a	f	11	0.05000000000000002	0	f	1	0.9934353188145906
0	62	n/a	n/a	n/a	j	11	0.06000000000000002	1	j	1	0.9958147520665079
0	63	n/a	n/a	n/a	f	11	0.05000000000000002	1	f	1	0.9209541226737201
0	64	n/a	n/a	n/a	f	11	0.04000000000000001	0	f	1	0.9644071459770203
0	65	n/a	n/a	n/a	f	11	0.05000000000000002	1	f	1	1.050626960350201
0	66	n/a	n/a	n/a	f	11	0.04000000000000001	2	f	1	0.9506060911808163
0	67	n/a	n/a	n/a	f	11	0.05000000000000002	1	f	1	0.9871497491840273
0	68	n/a	n/a	n/a	j	11	0.04000000000000001	1	j	1	0.9274438228458166
0	69	n/a	n/a	n/a	f	11	0.03000000000000001	0	f	1	0.8739641653373837
0	70	n/a	n/a	n/a	f	11	0.04000000000000001	0	f	1	1.04682459984906
0	71	n/a	n/a	n/a	f	11	0.05000000000000002	2	f	1	0.9554291046224535
1	0	f	1	2.601246793288738	f	5	0.1	2	f	1	0.5737669912632555
1	1	n/a	n/a	n/a	j	5	0.11	2	f	0	0.6004787376150489
1	2	n/a	n/a	n/a	f	5	0.1	2	j	0	0.6036433323752135
1	3	n/a	n/a	n/a	f	5	0.09000000000000001	1	f	1	0.6046408927068114
1	4	n/a	n/a	n/a	f	5	0.08000000000000002	1	f	1	0.6083463197574019
1	5	n/a	n/a	n/a	j	5	0.07000000000000002	1	f	0	0.5735916555859149
1	6	n/a	n/a	n/a	f	5	0.06000000000000002	1	j	0	0.6323296721093357
1	7	n/a	n/a	n/a	f	5	0.05000000000000002	2	f	1	0.637265014462173
1	8	n/a	n/a	n/a	f	5	0.06000000000000002	1	f	1	0.6092378229368478
1	9	n/a	n/a	n/a	j	5	0.05000000000000002	1	f	0	0.6211441121995449
1	10	n/a	n/a	n/a	f	5	0.04000000000000001	1	j	0	0.7142065791413188
1	11	n/a	n/a	n/a	f	5	0.03000000000000001	1	j	0	0.5981939572375268
1	12	n/a	n/a	n/a	f	5	0.04000000000000001	1	f	1	0.6751024501863867
1	13	n/a	n/a	n/a	j	5	0.03000000000000001	1	f	0	0.6561103195417672
1	14	n/a	n/a	n/a	f	5	0.04000000000000001	2	f	1	0.6361782185267657
1	15	n/a	n/a	n/a	f	5	0.05000000000000002	2	f	1	0.6729556573554873
1	16	n/a	n/a	n/a	f	5	0.06000000000000002	2	j	0	0.6459844713099301
1	17	n/a	n/a	n/a	j	5	0.07000000000000002	2	f	0	0.6513314961921424
1	18	n/a	n/a	n/a	f	5	0.06000000000000002	2	f	1	0.6797669490333647
1	19	n/a	n/a	n/a	f	5	0.07000000000000002	2	f	1	0.676796791376546
1	20	n/a	n/a	n/a	f	5	0.08000000000000002	2	f	1	0.6246821864042431
1	21	n/a	n/a	n/a	j	5	0.09000000000000001	1	j	1	0.6307778800837696
1	22	n/a	n/a	n/a	f	5	0.08000000000000002	1	f	1	0.6369266025722027
1	23	n/a	n/a	n/a	f	5	0.07000000000000002	1	f	1	0.6421744131948799
1	24	n/a	n/a	n/a	f	5	0.06000000000000002	1	f	1	0.5996753296349198
1	25	n/a	n/a	n/a	j	5	0.05000000000000002	1	j	1	0.6025451326277107
1	26	n/a	n/a	n/a	f	5	0.04000000000000001	1	f	1	0.6565616307780147
1	27	n/a	n/a	n/a	f	5	0.03000000000000001	2	f	1	0.6215198722202331
1	28	n/a	n/a	n/a	f	5	0.04000000000000001	1	f	1	0.6035130424425006
1	29	n/a	n/a	n/a	j	5	0.03000000000000001	1	j	1	0.6094168648123741
1	30	n/a	n/a	n/a	f	5	0.02000000000000001	2	f	1	0.6216743956319988
1	31	n/a	n/a	n/a	f	5	0.03000000000000001	2	f	1	0.6503709987737238
1	32	n/a	n/a	n/a	f	5	0.04000000000000001	2	f	1	0.5843438652809709
1	33	n/a	n/a	n/a	j	5	0.05000000000000002	1	j	1	0.5903354983311146
1	34	n/a	n/a	n/a	f	5	0.04000000000000001	1	f	1	0.6684416907373816
1	35	n/a	n/a	n/a	f	5	0.03000000000000001	2	f	1	0.6102467870805413
1	36	n/a	n/a	n/a	f	5	0.04000000000000001	1	f	1	0.5510896753985435
1	37	n/a	n/a	n/a	j	5	0.03000000000000001	0	j	1	0.658150200266391
1	38	n/a	n/a	n/a	f	5	0.04000000000000001	2	f	1	0.6071406374685466
1	39	n/a	n/a	n/a	f	5	0.05000000000000002	1	f	1	0.6523148012347519
1	40	n/a	n/a	n/a	f	5	0.04000000000000001	2	f	1	0.5780565852764994
1	41	n/a	n/a	n/a	j	5	0.05000000000000002	1	j	1	0.5905966486316174
1	42	n/a	n/a	n/a	f	5	0.04000000000000001	1	f	1	0.5940044326707721
1	43	n/a	n/a	n/a	f	5	0.03000000000000001	1	f	1	0.6627622409723699
1	44	n/a	n/a	n/a	f	5	0.02000000000000001	2	f	1	0.5689040638972074
1	45	n/a	n/a	n/a	j	5	0.03000000000000001	1	j	1	0.6379042058251798
1	46	n/a	n/a	n/a	f	5	0.02000000000000001	2	f	1	0.6348619181662798
1	47	n/a	n/a	n/a	f	5	0.03000000000000001	2	f	1	0.6297783243935555
1	48	n/a	n/a	n/a	f	5	0.04000000000000001	2	f	1	0.5557801183313131
1	49	n/a	n/a	n/a	j	5	0.05000000000000002	1	j	1	0.6571497891563922
1	50	n/a	n/a	n/a	f	5	0.04000000000000001	2	f	1	0.614699742756784
1	51	n/a	n/a	n/a	f	5	0.05000000000000002	1	f	1	0.653694108594209
1	52	n/a	n/a	n/a	f	5	0.04000000000000001	2	f	1	0.6098713120445609
1	53	n/a	n/a	n/a	j	5	0.05000000000000002	1	j	1	0.6127488126512617
1	54	n/a	n/a	n/a	f	5	0.04000000000000001	1	f	1	0.6597513139713556
1	55	n/a	n/a	n/a	f	5	0.03000000000000001	2	f	1	0.6408877628855407
1	56	n/a	n/a	n/a	f	5	0.04000000000000001	2	f	1	0.6127519488800317
1	57	n/a	n/a	n/a	j	5	0.05000000000000002	1	j	1	0.6093954825773835
1	58	n/a	n/a	n/a	f	5	0.04000000000000001	1	f	1	0.5990295812953264
1	59	n/a	n/a	n/a	f	5	0.03000000000000001	1	f	1	0.6035344246774912
1	60	n/a	n/a	n/a	f	5	0.02000000000000001	1	f	1	0.680840345332399
1	61	n/a	n/a	n/a	j	5	0.01000000000000001	2	j	1	0.597292760387063
1	62	n/a	n/a	n/a	f	5	0.02000000000000001	1	f	1	0.60926519241184
1	63	n/a	n/a	n/a	f	5	0.01000000000000001	2	f	1	0.6702486458234489
1	64	n/a	n/a	n/a	f	5	0.02000000000000001	2	f	1	0.57116261520423
1	65	n/a	n/a	n/a	j	5	0.03000000000000001	1	j	1	0.5991801132913679
1	66	n/a	n/a	n/a	f	5	0.02000000000000001	1	f	1	0.5635784212499857
1	67	n/a	n/a	n/a	f	5	0.01000000000000001	0	f	1	0.6713648070581257
1	68	n/a	n/a	n/a	f	5	0.02000000000000001	2	f	1	0.5890773581340909
1	69	n/a	n/a	n/a	j	5	0.03000000000000001	1	j	1	0.5960166589356959
1	70	n/a	n/a	n/a	f	5	0.02000000000000001	1	f	1	0.5859332901891321
1	71	n/a	n/a	n/a	f	5	0.01000000000000001	1	f	1	0.6797412899322808
2	0	j	1	3.091987074818462	j	12	0.1	0	j	1	0.9031462916173041
2	1	n/a	n/a	n/a	j	12	0.11	1	j	1	0.9382524820975959
2	2	n/a	n/a	n/a	f	12	0.1	1	f	1	0.9015839509665966
2	3	n/a	n/a	n/a	j	12	0.09000000000000001	1	j	1	0.9459666809998453
2	4	n/a	n/a	n/a	j	12	0.08000000000000002	1	j	1	0.9588477227371186
2	5	n/a	n/a	n/a	j	12	0.07000000000000002	1	j	1	0.953682875726372
2	6	n/a	n/a	n/a	j	12	0.06000000000000002	1	j	1	0.9517815527506173
2	7	n/a	n/a	n/a	j	12	0.05000000000000002	1	f	0	0.9737147609703243
2	8	n/a	n/a	n/a	f	12	0.04000000000000001	1	j	0	0.994634443661198
2	9	n/a	n/a	n/a	j	12	0.03000000000000001	1	j	1	0.9896375199314207
2	10	n/a	n/a	n/a	j	12	0.02000000000000001	1	j	1	0.9875383386388421
2	11	n/a	n/a	n/a	j	12	0.01000000000000001	1	j	1	0.9445046952459961
2	12	n/a	n/a	n/a	j	12	1.040834085586084e-17	1	f	0	0.9272930056322366
2	13	n/a	n/a	n/a	j	12	0.01000000000000001	0	j	1	0.9984074390958995
2	14	n/a	n/a	n/a	f	12	0.02000000000000001	0	j	0	0.9954934460110962
2	15	n/a	n/a	n/a	j	12	0.01000000000000001	2	j	1	0.9042479128111154
2	16	n/a	n/a	n/a	j	12	0.02000000000000001	0	j	1	0.9821576720569283
2	17	n/a	n/a	n/a	j	12	0.03000000000000001	1	j	1	0.93911062926054
2	18	n/a	n/a	n/a	j	12	0.02000000000000001	0	j	1	0.9431211117189378
2	19	n/a	n/a	n/a	j	12	0.03000000000000001	0	j	1	0.9940639610867947
2	20	n/a	n/a	n/a	f	12	0.04000000000000001	1	f	1	0.9440502480138093
2	21	n/a	n/a	n/a	j	12	0.03000000000000001	0	j	1	0.908889603568241
2	22	n/a	n/a	n/a	j	12	0.04000000000000001	0	j	1	1.041867589810863
2	23	n/a	n/a	n/a	j	12	0.05000000000000002	2	j	1	0.9118731608614326
2	24	n/a	n/a	n/a	j	12	0.06000000000000002	0	j	1	0.9088402814231813
2	25	n/a	n/a	n/a	j	12	0.07000000000000002	0	j	1	0.9516860446892679
2	26	n/a	n/a	n/a	f	12	0.08000000000000002	1	f	1	0.9248303235508502
2	27	n/a	n/a	n/a	j	12	0.07000000000000002	1	j	1	0.8508381044957787
2	28	n/a	n/a	n/a	j	12	0.06000000000000002	0	j	1	0.9995224599260837
2	29	n/a	n/a	n/a	j	12	0.07000000000000002	1	j	1	0.9002228900790215
2	30	n/a	n/a	n/a	j	12	0.06000000000000002	1	f	0	0.9464114350266755
2	31	n/a	n/a	n/a	j	12	0.07000000000000002	1	j	1	0.99142109695822
2	32	n/a	n/a	n/a	f	12	0.06000000000000002	1	j	0	1.00352838053368
2	33	n/a	n/a	n/a	j	12	0.05000000000000002	1	j	1	0.9457745247054845
2	34	n/a	n/a	n/a	j	12	0.04000000000000001	1	j	1	0.9742188153322786
2	35	n/a	n/a	n/a	j	12	0.03000000000000001	1	j	1	0.896444478072226
2	36	n/a	n/a	n/a	j	12	0.02000000000000001	0	j	1	0.9490936428774148
2	37	n/a	n/a	n/a	j	12	0.03000000000000001	0	j	1	0.9350801897235215
2	38	n/a	n/a	n/a	f	12	0.04000000000000001	0	f	1	0.9340735063888133
2	39	n/a	n/a	n/a	j	12	0.05000000000000002	0	j	1	0.9549489987548441
2	40	n/a	n/a	n/a	j	12	0.06000000000000002	1	j	1	0.9518821926321834
2	41	n/a	n/a	n/a	j	12	0.05000000000000002	1	j	1	0.9333553428296
2	42	n/a	n/a	n/a	j	12	0.04000000000000001	1	f	0	0.9628043214324862
2	43	n/a	n/a	n/a	j	12	0.05000000000000002	1	j	1	1.015742861432955
2	44	n/a	n/a	n/a	f	12	0.04000000000000001	1	j	0	0.9222903798799962
2	45	n/a	n/a	n/a	j	12	0.03000000000000001	0	j	1	0.9206148551311344
2	46	n/a	n/a	n/a	j	12	0.04000000000000001	0	j	1	1.021616748766974
2	47	n/a	n/a	n/a	j	12	0.05000000000000002	1	j	1	0.8675004090182483
2	48	n/a	n/a	n/a	j	12	0.04000000000000001	0	j	1	0.9294435046613216
2	49	n/a	n/a	n/a	j	12	0.05000000000000002	0	j	1	0.9684067945927382
2	50	n/a	n/a	n/a	f	12	0.06000000000000002	1	f	1	0.9173504756763577
2	51	n/a	n/a	n/a	j	12	0.05000000000000002	0	j	1	2.9084343011491
2	52	n/a	n/a	n/a	j	12	0.06000000000000002	2	j	1	0.9391639425884932
2	53	n/a	n/a	n/a	j	12	0.07000000000000002	1	j	1	0.9427259648218751
2	54	n/a	n/a	n/a	j	12	0.06000000000000002	1	j	1	0.8900482899043709
2	55	n/a	n/a	n/a	j	12	0.05000000000000002	0	j	1	0.9829958619084209
2	56	n/a	n/a	n/a	f	12	0.06000000000000002	1	f	1	0.9479355723597109
2	57	n/a	n/a	n/a	j	12	0.05000000000000002	1	j	1	0.9278999804519117
2	58	n/a	n/a	n/a	j	12	0.04000000000000001	0	j	1	0.9248619694262743
2	59	n/a	n/a	n/a	j	12	0.05000000000000002	0	j	1	0.8999705777969211
2	60	n/a	n/a	n/a	j	12	0.06000000000000002	0	j	1	0.9447339146863669
2	61	n/a	n/a	n/a	j	12	0.07000000000000002	1	j	1	0.9649060685187578
2	62	n/a	n/a	n/a	f	12	0.06000000000000002	1	f	1	0.9306126942392439
2	63	n/a	n/a	n/a	j	12	0.05000000000000002	0	j	1	0.9435390662401915
2	64	n/a	n/a	n/a	j	12	0.06000000000000002	1	j	1	0.9486417616717517
2	65	n/a	n/a	n/a	j	12	0.05000000000000002	1	j	1	0.916147644398734
2	66	n/a	n/a	n/a	j	12	0.04000000000000001	0	j	1	0.9523751281667501
2	67	n/a	n/a	n/a	j	12	0.05000000000000002	1	j	1	0.9965004143305123
2	68	n/a	n/a	n/a	f	12	0.04000000000000001	1	f	1	0.9462948297150433
2	69	n/a	n/a	n/a	j	12	0.03000000000000001	0	j	1	0.9272676317486912
2	70	n/a	n/a	n/a	j	12	0.04000000000000001	0	j	1	1.00318996864371
2	71	n/a	n/a	n/a	j	12	0.05000000000000002	1	j	1	0.9021256384439766
3	0	f	1	2.520777418278158	f	7	0.1	2	f	1	0.5915668394882232
3	1	n/a	n/a	n/a	f	7	0.11	1	f	1	0.5382690748665482
3	2	n/a	n/a	n/a	j	7	0.1	1	f	0	0.5688587329350412
3	3	n/a	n/a	n/a	f	7	0.09000000000000001	1	f	1	0.6540219720918685
3	4	n/a	n/a	n/a	f	7	0.08000000000000002	1	f	1	0.7071529536042362
3	5	n/a	n/a	n/a	f	7	0.07000000000000002	2	f	1	0.5600084161851555
3	6	n/a	n/a	n/a	f	7	0.08000000000000002	1	f	1	0.6528807221911848
3	7	n/a	n/a	n/a	f	7	0.07000000000000002	1	f	1	0.6085544417146593
3	8	n/a	n/a	n/a	j	7	0.06000000000000002	1	f	0	0.6156385724898428
3	9	n/a	n/a	n/a	f	7	0.05000000000000002	1	f	1	0.6440187161788344
3	10	n/a	n/a	n/a	f	7	0.04000000000000001	2	f	1	0.6085478842724115
3	11	n/a	n/a	n/a	f	7	0.05000000000000002	1	f	1	0.5905248038470745
3	12	n/a	n/a	n/a	f	7	0.04000000000000001	1	f	1	0.6682769036851823
3	13	n/a	n/a	n/a	f	7	0.03000000000000001	2	f	1	0.7208650577813387
3	14	n/a	n/a	n/a	j	7	0.04000000000000001	2	j	1	0.6047073204535991
3	15	n/a	n/a	n/a	f	7	0.05000000000000002	1	f	1	0.6675553191453218
3	16	n/a	n/a	n/a	f	7	0.04000000000000001	2	f	1	0.6173149524256587
3	17	n/a	n/a	n/a	f	7	0.05000000000000002	1	f	1	0.5582832843065262
3	18	n/a	n/a	n/a	f	7	0.04000000000000001	1	f	1	0.5951887322589755
3	19	n/a	n/a	n/a	f	7	0.03000000000000001	1	f	1	0.7612310331314802
3	20	n/a	n/a	n/a	j	7	0.02000000000000001	2	j	1	0.622196126030758
3	21	n/a	n/a	n/a	f	7	0.03000000000000001	2	f	1	0.6519470240455121
3	22	n/a	n/a	n/a	f	7	0.04000000000000001	2	f	1	0.6250071988906711
3	23	n/a	n/a	n/a	f	7	0.05000000000000002	1	f	1	0.4860535450279713
3	24	n/a	n/a	n/a	f	7	0.04000000000000001	0	f	1	0.6750545536633581
3	25	n/a	n/a	n/a	f	7	0.05000000000000002	2	f	1	0.6873397389426827
3	26	n/a	n/a	n/a	j	7	0.06000000000000002	2	j	1	0.603984595509246
3	27	n/a	n/a	n/a	f	7	0.07000000000000002	1	f	1	0.6249544555321336
3	28	n/a	n/a	n/a	f	7	0.06000000000000002	1	f	1	0.5873200099449605
3	29	n/a	n/a	n/a	f	7	0.05000000000000002	1	f	1	0.5830421049613506
3	30	n/a	n/a	n/a	f	7	0.04000000000000001	1	f	1	0.5237341762986034
3	31	n/a	n/a	n/a	f	7	0.03000000000000001	0	f	1	0.6640697033144534
3	32	n/a	n/a	n/a	j	7	0.04000000000000001	2	j	1	0.6279183409642428
3	33	n/a	n/a	n/a	f	7	0.05000000000000002	1	f	1	0.5606974994298071
3	34	n/a	n/a	n/a	f	7	0.04000000000000001	1	f	1	0.6549137604888529
3	35	n/a	n/a	n/a	f	7	0.03000000000000001	2	f	1	0.4928448793943971
3	36	n/a	n/a	n/a	f	7	0.04000000000000001	0	f	1	0.5946347857825458
3	37	n/a	n/a	n/a	f	7	0.05000000000000002	1	f	1	0.6175769581459463
3	38	n/a	n/a	n/a	j	7	0.04000000000000001	1	j	1	0.5665708165615797
3	39	n/a	n/a	n/a	f	7	0.03000000000000001	1	f	1	0.556768269976601
3	40	n/a	n/a	n/a	f	7	0.02000000000000001	0	f	1	0.5784751099999994
3	41	n/a	n/a	n/a	f	7	0.03000000000000001	1	f	1	0.5614376156590879
3	42	n/a	n/a	n/a	f	7	0.02000000000000001	0	f	1	0.5904395594261587
3	43	n/a	n/a	n/a	f	7	0.03000000000000001	1	f	1	0.6115479771979153
3	44	n/a	n/a	n/a	j	7	0.02000000000000001	2	j	1	0.6273621136788279
3	45	n/a	n/a	n/a	f	7	0.03000000000000001	2	f	1	0.5773347152862698
3	46	n/a	n/a	n/a	f	7	0.04000000000000001	1	f	1	0.6529334653168917
3	47	n/a	n/a	n/a	f	7	0.03000000000000001	2	f	1	0.5745068222749978
3	48	n/a	n/a	n/a	f	7	0.04000000000000001	1	f	1	0.6032419134862721
3	49	n/a	n/a	n/a	f	7	0.03000000000000001	1	f	1	0.6094633361790329
3	50	n/a	n/a	n/a	j	7	0.02000000000000001	2	j	1	0.6780948452651501
3	51	n/a	n/a	n/a	f	7	0.03000000000000001	2	f	1	0.6350754569284618
3	52	n/a	n/a	n/a	f	7	0.04000000000000001	2	f	1	0.58406703453511
3	53	n/a	n/a	n/a	f	7	0.05000000000000002	1	f	1	0.5882026755716652
3	54	n/a	n/a	n/a	f	7	0.04000000000000001	1	f	1	0.5449754500295967
3	55	n/a	n/a	n/a	f	7	0.03000000000000001	0	f	1	0.6389855849556625
3	56	n/a	n/a	n/a	j	7	0.04000000000000001	2	j	1	0.588882350595668
3	57	n/a	n/a	n/a	f	7	0.05000000000000002	1	f	1	0.569899057969451
3	58	n/a	n/a	n/a	f	7	0.04000000000000001	1	f	1	0.583131626015529
3	59	n/a	n/a	n/a	f	7	0.03000000000000001	1	f	1	0.564198225736618
3	60	n/a	n/a	n/a	f	7	0.02000000000000001	0	f	1	0.5457868408411741
3	61	n/a	n/a	n/a	f	7	0.03000000000000001	0	f	1	0.5890137811657041
3	62	n/a	n/a	n/a	j	7	0.04000000000000001	1	j	1	0.5851427116431296
3	63	n/a	n/a	n/a	f	7	0.03000000000000001	1	f	1	0.5496715947519988
3	64	n/a	n/a	n/a	f	7	0.02000000000000001	0	f	1	0.5791408154182136
3	65	n/a	n/a	n/a	f	7	0.03000000000000001	1	f	1	0.5356780986767262
3	66	n/a	n/a	n/a	f	7	0.02000000000000001	0	f	1	0.5949760489165783
3	67	n/a	n/a	n/a	f	7	0.03000000000000001	1	f	1	0.6095582738053054
3	68	n/a	n/a	n/a	j	7	0.02000000000000001	2	j	1	0.5824790352489799
3	69	n/a	n/a	n/a	f	7	0.03000000000000001	1	f	1	0.5636311643756926
3	70	n/a	n/a	n/a	f	7	0.02000000000000001	0	f	1	0.5599858933128417
3	71	n/a	n/a	n/a	f	7	0.03000000000000001	1	f	1	0.5264272179920226
4	0	j	1	2.794310457538813	j	2	0.1	2	j	1	0.4070179308764637
4	1	n/a	n/a	n/a	f	2	0.11	2	j	0	0.3395370796788484
4	2	n/a	n/a	n/a	j	2	0.1	2	f	0	0.4423407965805382
4	3	n/a	n/a	n/a	j	2	0.09000000000000001	1	j	1	0.3742974456399679
4	4	n/a	n/a	n/a	j	2	0.08000000000000002	1	j	1	0.3893338327761739
4	5	n/a	n/a	n/a	f	2	0.07000000000000002	1	j	0	0.352548411116004
4	6	n/a	n/a	n/a	j	2	0.06000000000000002	1	f	0	0.3771241987124085
4	7	n/a	n/a	n/a	j	2	0.05000000000000002	1	j	1	0.4711711111012846
4	8	n/a	n/a	n/a	j	2	0.04000000000000001	2	j	1	0.422889371868223
4	9	n/a	n/a	n/a	f	2	0.05000000000000002	1	f	1	0.3552061005029827
4	10	n/a	n/a	n/a	j	2	0.04000000000000001	1	j	1	0.470150742912665
4	11	n/a	n/a	n/a	j	2	0.03000000000000001	2	j	1	0.4255718651693314
4	12	n/a	n/a	n/a	j	2	0.04000000000000001	2	j	1	0.3970822435803711
4	13	n/a	n/a	n/a	f	2	0.05000000000000002	1	f	1	0.3641676059924066
4	14	n/a	n/a	n/a	j	2	0.04000000000000001	1	j	1	0.4880697627086192
4	15	n/a	n/a	n/a	j	2	0.03000000000000001	2	j	1	0.3945944728329778
4	16	n/a	n/a	n/a	j	2	0.04000000000000001	1	j	1	0.3929933588951826
4	17	n/a	n/a	n/a	f	2	0.03000000000000001	1	f	1	0.3830029326491058
4	18	n/a	n/a	n/a	j	2	0.02000000000000001	1	j	1	0.4342023709323257
4	19	n/a	n/a	n/a	j	2	0.01000000000000001	2	j	1	0.4256551139988005
4	20	n/a	n/a	n/a	j	2	0.02000000000000001	2	j	1	0.3749360668007284
4	21	n/a	n/a	n/a	f	2	0.03000000000000001	1	f	1	0.3956521889194846
4	22	n/a	n/a	n/a	j	2	0.02000000000000001	1	j	1	0.4018835895694792
4	23	n/a	n/a	n/a	j	2	0.01000000000000001	2	j	1	0.4008330011274666
4	24	n/a	n/a	n/a	j	2	0.02000000000000001	1	j	1	0.3918196079321206
4	25	n/a	n/a	n/a	f	2	0.01000000000000001	2	f	1	0.364930815063417
4	26	n/a	n/a	n/a	j	2	0.02000000000000001	1	j	1	0.4272234414238483
4	27	n/a	n/a	n/a	j	2	0.01000000000000001	2	j	1	0.3991991009097546
4	28	n/a	n/a	n/a	j	2	0.02000000000000001	1	j	1	0.3968698449898511
4	29	n/a	n/a	n/a	f	2	0.01000000000000001	2	f	1	0.3457003419753164
4	30	n/a	n/a	n/a	j	2	0.02000000000000001	0	j	1	0.3996640967670828
4	31	n/a	n/a	n/a	j	2	0.03000000000000001	1	j	1	0.4206390883773565
4	32	n/a	n/a	n/a	j	2	0.02000000000000001	2	j	1	0.4096049158833921
4	33	n/a	n/a	n/a	f	2	0.03000000000000001	1	f	1	0.3505977662280202
4	34	n/a	n/a	n/a	j	2	0.02000000000000001	0	j	1	0.4360432527028024
4	35	n/a	n/a	n/a	j	2	0.03000000000000001	2	j	1	0.4010334257036448
4	36	n/a	n/a	n/a	j	2	0.04000000000000001	1	j	1	0.3415270682889968
4	37	n/a	n/a	n/a	f	2	0.03000000000000001	0	f	1	0.3857872057706118
4	38	n/a	n/a	n/a	j	2	0.04000000000000001	1	j	1	0.4639951784629375
4	39	n/a	n/a	n/a	j	2	0.03000000000000001	2	j	1	0.3896810829173774
4	40	n/a	n/a	n/a	j	2	0.04000000000000001	1	j	1	0.4104314169380814
4	41	n/a	n/a	n/a	f	2	0.03000000000000001	1	f	1	0.3674071817658842
4	42	n/a	n/a	n/a	j	2	0.02000000000000001	1	j	1	0.42999003874138
4	43	n/a	n/a	n/a	j	2	0.01000000000000001	2	j	1	0.3708200976252556
4	44	n/a	n/a	n/a	j	2	0.02000000000000001	1	j	1	0.392282037762925
4	45	n/a	n/a	n/a	f	2	0.01000000000000001	1	f	1	0.3502881492022425
4	46	n/a	n/a	n/a	j	2	1.040834085586084e-17	0	j	1	0.4342656629160047
4	47	n/a	n/a	n/a	j	2	0.01000000000000001	2	j	1	0.3752200247254223
4	48	n/a	n/a	n/a	j	2	0.02000000000000001	1	j	1	0.3884255085140467
4	49	n/a	n/a	n/a	f	2	0.01000000000000001	1	f	1	0.4102267161943018
4	50	n/a	n/a	n/a	j	2	1.040834085586084e-17	2	j	1	0.3512725948821753
4	51	n/a	n/a	n/a	j	2	0.01000000000000001	0	j	1	0.3960025750566274
4	52	n/a	n/a	n/a	j	2	0.02000000000000001	1	j	1	0.3441955912858248
4	53	n/a	n/a	n/a	f	2	0.01000000000000001	0	f	1	0.3883622167631984
4	54	n/a	n/a	n/a	j	2	0.02000000000000001	1	j	1	0.36370546114631
4	55	n/a	n/a	n/a	j	2	0.01000000000000001	0	j	1	0.3851055349223316
4	56	n/a	n/a	n/a	j	2	0.02000000000000001	1	j	1	0.3643229848239571
4	57	n/a	n/a	n/a	f	2	0.01000000000000001	0	f	1	0.3730561262927949
4	58	n/a	n/a	n/a	j	2	0.02000000000000001	1	j	1	0.378017412731424
4	59	n/a	n/a	n/a	j	2	0.01000000000000001	1	j	1	0.430295379133895
4	60	n/a	n/a	n/a	j	2	1.040834085586084e-17	2	j	1	0.3492030636407435
4	61	n/a	n/a	n/a	f	2	0.01000000000000001	0	f	1	0.3619686402380466
4	62	n/a	n/a	n/a	j	2	0.02000000000000001	0	j	1	0.3758520886767656
4	63	n/a	n/a	n/a	j	2	0.03000000000000001	1	j	1	0.3948861288372427
4	64	n/a	n/a	n/a	j	2	0.02000000000000001	1	j	1	0.3755595772527158
4	65	n/a	n/a	n/a	f	2	0.01000000000000001	1	f	1	0.3088074382394552
4	66	n/a	n/a	n/a	j	2	1.040834085586084e-17	0	j	1	0.4417617612052709
4	67	n/a	n/a	n/a	j	2	0.01000000000000001	2	j	1	0.3684058822691441
4	68	n/a	n/a	n/a	j	2	0.02000000000000001	1	j	1	0.3737828426528722
4	69	n/a	n/a	n/a	f	2	0.01000000000000001	0	f	1	0.3789944457821548
4	70	n/a	n/a	n/a	j	2	0.02000000000000001	1	j	1	0.4247242668643594
4	71	n/a	n/a	n/a	j	2	0.01000000000000001	2	j	1	0.3896953379735351
5	0	j	1	1.070821066852659	j	10	0.1	0	j	1	0.9021761007606983
5	1	n/a	n/a	n/a	f	10	0.11	0	j	0	0.9059995587449521
5	2	n/a	n/a	n/a	j	10	0.1	1	j	1	1.007957102963701
5	3	n/a	n/a	n/a	j	10	0.09000000000000001	1	j	1	0.924123564036563
5	4	n/a	n/a	n/a	j	10	0.08000000000000002	1	j	1	0.8634739611297846
5	5	n/a	n/a	n/a	f	10	0.07000000000000002	0	f	1	0.9313291469588876
5	6	n/a	n/a	n/a	j	10	0.08000000000000002	1	j	1	0.8806645534932613
5	7	n/a	n/a	n/a	j	10	0.07000000000000002	0	j	1	0.9337405110709369
5	8	n/a	n/a	n/a	j	10	0.08000000000000002	1	j	1	0.8277887350413948
5	9	n/a	n/a	n/a	f	10	0.07000000000000002	0	f	1	0.9055394094903022
5	10	n/a	n/a	n/a	j	10	0.08000000000000002	1	j	1	0.8785032208543271
5	11	n/a	n/a	n/a	j	10	0.07000000000000002	0	j	1	0.9014679158572108
5	12	n/a	n/a	n/a	j	10	0.08000000000000002	0	j	1	0.8734338819049299
5	13	n/a	n/a	n/a	f	10	0.09000000000000001	0	f	1	0.8293801555410028
5	14	n/a	n/a	n/a	j	10	0.1	0	j	1	0.9143267197068781
5	15	n/a	n/a	n/a	j	10	0.11	1	j	1	0.8932274247054011
5	16	n/a	n/a	n/a	j	10	0.1	1	j	1	0.9131871804129332
5	17	n/a	n/a	n/a	f	10	0.09000000000000001	1	f	1	0.8290705385152251
5	18	n/a	n/a	n/a	j	10	0.08000000000000002	0	j	1	0.9531280738301575
5	19	n/a	n/a	n/a	j	10	0.09000000000000001	1	j	1	0.9001459134742618
5	20	n/a	n/a	n/a	j	10	0.08000000000000002	0	j	1	0.9366057524457574
5	21	n/a	n/a	n/a	f	10	0.09000000000000001	1	f	1	0.869892101502046
5	22	n/a	n/a	n/a	j	10	0.08000000000000002	0	j	1	0.938789893174544
5	23	n/a	n/a	n/a	j	10	0.09000000000000001	1	j	1	0.9278555051423609
5	24	n/a	n/a	n/a	j	10	0.08000000000000002	1	j	1	0.8833159706555307
5	25	n/a	n/a	n/a	f	10	0.07000000000000002	0	f	1	0.9020081779453903
5	26	n/a	n/a	n/a	j	10	0.08000000000000002	0	j	1	0.9046698587480932
5	27	n/a	n/a	n/a	j	10	0.09000000000000001	1	j	1	0.9736335079651326
5	28	n/a	n/a	n/a	j	10	0.08000000000000002	1	j	1	0.8805875768885016
5	29	n/a	n/a	n/a	f	10	0.07000000000000002	0	f	1	0.9317314212676138
5	30	n/a	n/a	n/a	j	10	0.08000000000000002	1	j	1	0.9704538027290255
5	31	n/a	n/a	n/a	j	10	0.07000000000000002	1	j	1	0.9348136226180941
5	32	n/a	n/a	n/a	j	10	0.06000000000000002	1	j	1	0.9315421157516539
5	33	n/a	n/a	n/a	f	10	0.05000000000000002	0	f	1	0.8903353842906654
5	34	n/a	n/a	n/a	j	10	0.06000000000000002	0	j	1	0.9982152825687081
5	35	n/a	n/a	n/a	j	10	0.07000000000000002	1	j	1	0.9243926971685141
5	36	n/a	n/a	n/a	j	10	0.06000000000000002	0	j	1	0.9452123099472374
5	37	n/a	n/a	n/a	f	10	0.07000000000000002	1	f	1	0.9730801316909492
5	38	n/a	n/a	n/a	j	10	0.06000000000000002	1	j	1	0.953021161723882
5	39	n/a	n/a	n/a	j	10	0.05000000000000002	1	j	1	0.9339038727339357
5	40	n/a	n/a	n/a	j	10	0.04000000000000001	0	j	1	0.9249075853731483
5	41	n/a	n/a	n/a	f	10	0.05000000000000002	0	f	1	0.9458078809548169
5	42	n/a	n/a	n/a	j	10	0.06000000000000002	1	j	1	0.9753897155169398
5	43	n/a	n/a	n/a	j	10	0.05000000000000002	1	j	1	0.9169610310345888
5	44	n/a	n/a	n/a	j	10	0.04000000000000001	0	j	1	0.9649910279549658
5	45	n/a	n/a	n/a	f	10	0.05000000000000002	1	f	1	0.9146560085937381
5	46	n/a	n/a	n/a	j	10	0.04000000000000001	0	j	1	0.968530242331326
5	47	n/a	n/a	n/a	j	10	0.05000000000000002	1	j	1	0.990539857186377
5	48	n/a	n/a	n/a	j	10	0.04000000000000001	1	j	1	0.9326987606473267
5	49	n/a	n/a	n/a	f	10	0.03000000000000001	0	f	1	0.9696652200073004
5	50	n/a	n/a	n/a	j	10	0.04000000000000001	1	j	1	0.9514020865317434
5	51	n/a	n/a	n/a	j	10	0.03000000000000001	0	j	1	0.9583046096377075
5	52	n/a	n/a	n/a	j	10	0.04000000000000001	1	j	1	0.940433771815151
5	53	n/a	n/a	n/a	f	10	0.03000000000000001	0	f	1	0.9611980756744742
5	54	n/a	n/a	n/a	j	10	0.04000000000000001	1	j	1	0.9573928641621023
5	55	n/a	n/a	n/a	j	10	0.03000000000000001	1	j	1	0.9390635879244655
5	56	n/a	n/a	n/a	j	10	0.02000000000000001	0	j	1	0.854994842549786
5	57	n/a	n/a	n/a	f	10	0.03000000000000001	0	f	1	0.9729820576030761
5	58	n/a	n/a	n/a	j	10	0.04000000000000001	1	j	1	0.9535329136997461
5	59	n/a	n/a	n/a	j	10	0.03000000000000001	1	j	1	0.9188900084700435
5	60	n/a	n/a	n/a	j	10	0.02000000000000001	0	j	1	0.9338086496572942
5	61	n/a	n/a	n/a	f	10	0.03000000000000001	0	f	1	0.9327007564716041
5	62	n/a	n/a	n/a	j	10	0.04000000000000001	0	j	1	0.9289574115537107
5	63	n/a	n/a	n/a	j	10	0.05000000000000002	0	j	1	0.974822654388845
5	64	n/a	n/a	n/a	j	10	0.06000000000000002	1	j	1	0.977236584527418
5	65	n/a	n/a	n/a	f	10	0.05000000000000002	1	f	1	0.9957115461584181
5	66	n/a	n/a	n/a	j	10	0.04000000000000001	1	j	1	0.969503854168579
5	67	n/a	n/a	n/a	j	10	0.03000000000000001	1	j	1	0.9350434120278805
5	68	n/a	n/a	n/a	j	10	0.02000000000000001	0	j	1	0.9683697319123894
5	69	n/a	n/a	n/a	f	10	0.03000000000000001	1	f	1	0.9395243073813617
5	70	n/a	n/a	n/a	j	10	0.02000000000000001	0	j	1	0.9594278980512172
5	71	n/a	n/a	n/a	j	10	0.03000000000000001	1	j	1	1.012382689164951
6	0	j	1	1.374638423789293	j	6	0.1	2	j	1	0.5659284894354641
6	1	n/a	n/a	n/a	f	6	0.11	2	j	0	0.5775454035028815
6	2	n/a	n/a	n/a	j	6	0.1	2	f	0	0.566818852443248
6	3	n/a	n/a	n/a	j	6	0.09000000000000001	1	j	1	0.6191612512338907
6	4	n/a	n/a	n/a	j	6	0.08000000000000002	1	j	1	0.5987670053727925
6	5	n/a	n/a	n/a	f	6	0.07000000000000002	1	j	0	0.5799234111327678
6	6	n/a	n/a	n/a	j	6	0.06000000000000002	1	j	1	0.6266465159133077
6	7	n/a	n/a	n/a	j	6	0.05000000000000002	1	j	1	0.5906411241739988
6	8	n/a	n/a	n/a	j	6	0.04000000000000001	1	j	1	0.5557621570769697
6	9	n/a	n/a	n/a	f	6	0.03000000000000001	0	f	1	0.6415816929657012
6	10	n/a	n/a	n/a	j	6	0.04000000000000001	2	j	1	0.557806599419564
6	11	n/a	n/a	n/a	j	6	0.05000000000000002	1	j	1	0.6244572435971349
6	12	n/a	n/a	n/a	j	6	0.04000000000000001	2	j	1	0.5090538773220032
6	13	n/a	n/a	n/a	f	6	0.05000000000000002	0	f	1	0.6094057462178171
6	14	n/a	n/a	n/a	j	6	0.06000000000000002	1	j	1	0.5416323835961521
6	15	n/a	n/a	n/a	j	6	0.05000000000000002	1	j	1	0.5872986277099699
6	16	n/a	n/a	n/a	j	6	0.04000000000000001	1	j	1	0.5611616401001811
6	17	n/a	n/a	n/a	f	6	0.03000000000000001	1	f	1	0.5583289000205696
6	18	n/a	n/a	n/a	j	6	0.02000000000000001	0	j	1	0.6194318099878728
6	19	n/a	n/a	n/a	j	6	0.03000000000000001	2	j	1	0.5984901746269315
6	20	n/a	n/a	n/a	j	6	0.04000000000000001	1	j	1	0.5713111516088247
6	21	n/a	n/a	n/a	f	6	0.03000000000000001	1	f	1	0.5511689328122884
6	22	n/a	n/a	n/a	j	6	0.02000000000000001	0	j	1	0.6683059837669134
6	23	n/a	n/a	n/a	j	6	0.03000000000000001	2	j	1	0.6010745938401669
6	24	n/a	n/a	n/a	j	6	0.04000000000000001	1	j	1	0.5895372221712023
6	25	n/a	n/a	n/a	f	6	0.03000000000000001	1	f	1	0.6026069989893585
6	26	n/a	n/a	n/a	j	6	0.02000000000000001	1	j	1	0.6062154923565686
6	27	n/a	n/a	n/a	j	6	0.01000000000000001	2	j	1	0.5809275284409523
6	28	n/a	n/a	n/a	j	6	0.02000000000000001	1	j	1	0.5539172836579382
6	29	n/a	n/a	n/a	f	6	0.01000000000000001	0	f	1	0.5768645878415555
6	30	n/a	n/a	n/a	j	6	0.02000000000000001	1	j	1	0.6078157511074096
6	31	n/a	n/a	n/a	j	6	0.01000000000000001	2	j	1	0.6229097282048315
6	32	n/a	n/a	n/a	j	6	0.02000000000000001	2	j	1	0.610712923342362
6	33	n/a	n/a	n/a	f	6	0.03000000000000001	1	f	1	0.5857137644197792
6	34	n/a	n/a	n/a	j	6	0.02000000000000001	1	j	1	0.6147621793206781
6	35	n/a	n/a	n/a	j	6	0.01000000000000001	2	j	1	0.5790943442843854
6	36	n/a	n/a	n/a	j	6	0.02000000000000001	1	j	1	0.6169075465295464
6	37	n/a	n/a	n/a	f	6	0.01000000000000001	2	f	1	0.6136232102289796
6	38	n/a	n/a	n/a	j	6	0.02000000000000001	2	j	1	0.5857995790429413
6	39	n/a	n/a	n/a	j	6	0.03000000000000001	1	j	1	0.6286920986603945
6	40	n/a	n/a	n/a	j	6	0.02000000000000001	2	j	1	0.6274533451069146
6	41	n/a	n/a	n/a	f	6	0.03000000000000001	2	f	1	0.5294449869543314
6	42	n/a	n/a	n/a	j	6	0.04000000000000001	0	j	1	0.6689885100349784
6	43	n/a	n/a	n/a	j	6	0.05000000000000002	2	j	1	0.5922747394070029
6	44	n/a	n/a	n/a	j	6	0.06000000000000002	1	j	1	0.6287810495123267
6	45	n/a	n/a	n/a	f	6	0.05000000000000002	1	f	1	0.6732359095476568
6	46	n/a	n/a	n/a	j	6	0.04000000000000001	2	j	1	0.5892372983507812
6	47	n/a	n/a	n/a	j	6	0.05000000000000002	1	j	1	0.6182058856356889
6	48	n/a	n/a	n/a	j	6	0.04000000000000001	1	j	1	0.6242000844795257
6	49	n/a	n/a	n/a	f	6	0.03000000000000001	2	f	1	0.5570362627040595
6	50	n/a	n/a	n/a	j	6	0.04000000000000001	1	j	1	0.6501078526489437
6	51	n/a	n/a	n/a	j	6	0.03000000000000001	2	j	1	0.5420970942359418
6	52	n/a	n/a	n/a	j	6	0.04000000000000001	0	j	1	0.5870101079344749
6	53	n/a	n/a	n/a	f	6	0.05000000000000002	1	f	1	0.5529961299616843
6	54	n/a	n/a	n/a	j	6	0.04000000000000001	1	j	1	0.6547954445704818
6	55	n/a	n/a	n/a	j	6	0.03000000000000001	2	j	1	0.5580198529642075
6	56	n/a	n/a	n/a	j	6	0.04000000000000001	1	j	1	0.6269236316438764
6	57	n/a	n/a	n/a	f	6	0.03000000000000001	2	f	1	0.6648771027103066
6	58	n/a	n/a	n/a	j	6	0.04000000000000001	2	j	1	0.5898687918670475
6	59	n/a	n/a	n/a	j	6	0.05000000000000002	1	j	1	0.5868017007596791
6	60	n/a	n/a	n/a	j	6	0.04000000000000001	1	j	1	0.5918034713249654
6	61	n/a	n/a	n/a	f	6	0.03000000000000001	1	f	1	0.5256295120343566
6	62	n/a	n/a	n/a	j	6	0.02000000000000001	0	j	1	0.6556878031697124
6	63	n/a	n/a	n/a	j	6	0.03000000000000001	2	j	1	0.5968850692734122
6	64	n/a	n/a	n/a	j	6	0.04000000000000001	1	j	1	0.6346344093326479
6	65	n/a	n/a	n/a	f	6	0.03000000000000001	2	f	1	0.575616141082719
6	66	n/a	n/a	n/a	j	6	0.04000000000000001	1	j	1	0.6367869039531797
6	67	n/a	n/a	n/a	j	6	0.03000000000000001	2	j	1	0.6277093635872006
6	68	n/a	n/a	n/a	j	6	0.04000000000000001	2	j	1	0.6325081437826157
6	69	n/a	n/a	n/a	f	6	0.05000000000000002	1	f	1	0.6229539182968438
6	70	n/a	n/a	n/a	j	6	0.04000000000000001	2	j	1	0.6276212681550533
6	71	n/a	n/a	n/a	j	6	0.05000000000000002	1	j	1	0.6163114050868899
7	0	f	1	1.040338891092688	f	3	0.1	2	f	1	0.3625756152905524
7	1	n/a	n/a	n/a	f	3	0.11	1	f	1	0.4078441469464451
7	2	n/a	n/a	n/a	j	3	0.1	1	j	1	0.4055382690858096
7	3	n/a	n/a	n/a	f	3	0.09000000000000001	1	f	1	0.4028894174844027
7	4	n/a	n/a	n/a	f	3	0.08000000000000002	1	f	1	0.3990742277819663
7	5	n/a	n/a	n/a	f	3	0.07000000000000002	1	f	1	0.3885278590023518
7	6	n/a	n/a	n/a	f	3	0.06000000000000002	1	f	1	0.3854185731615871
7	7	n/a	n/a	n/a	f	3	0.05000000000000002	1	f	1	0.4383203356992453
7	8	n/a	n/a	n/a	j	3	0.04000000000000001	2	j	1	0.3885432542301714
7	9	n/a	n/a	n/a	f	3	0.05000000000000002	1	f	1	0.4195209317840636
7	10	n/a	n/a	n/a	f	3	0.04000000000000001	1	f	1	0.4095992140937597
7	11	n/a	n/a	n/a	f	3	0.03000000000000001	1	f	1	0.4143081882502884
7	12	n/a	n/a	n/a	f	3	0.02000000000000001	2	f	1	0.3631021925248206
7	13	n/a	n/a	n/a	f	3	0.03000000000000001	1	f	1	0.4322542920708656
7	14	n/a	n/a	n/a	j	3	0.02000000000000001	2	j	1	0.389216942479834
7	15	n/a	n/a	n/a	f	3	0.03000000000000001	1	f	1	0.3531636539846659
7	16	n/a	n/a	n/a	f	3	0.02000000000000001	0	f	1	0.4291504232678562
7	17	n/a	n/a	n/a	f	3	0.03000000000000001	2	f	1	0.400438139680773
7	18	n/a	n/a	n/a	f	3	0.04000000000000001	1	f	1	0.3471101545728743
7	19	n/a	n/a	n/a	f	3	0.03000000000000001	0	f	1	0.430897222366184
7	20	n/a	n/a	n/a	j	3	0.04000000000000001	2	j	1	0.4212814157363027
7	21	n/a	n/a	n/a	f	3	0.05000000000000002	1	f	1	0.387960797874257
7	22	n/a	n/a	n/a	f	3	0.04000000000000001	1	f	1	0.3935039706993848
7	23	n/a	n/a	n/a	f	3	0.03000000000000001	1	f	1	0.3983244181144983
7	24	n/a	n/a	n/a	f	3	0.02000000000000001	1	f	1	0.435987658565864
7	25	n/a	n/a	n/a	f	3	0.01000000000000001	2	f	1	0.4009487512521446
7	26	n/a	n/a	n/a	j	3	0.02000000000000001	1	j	1	0.4389937384985387
7	27	n/a	n/a	n/a	f	3	0.01000000000000001	2	f	1	0.4118614715989679
7	28	n/a	n/a	n/a	f	3	0.02000000000000001	2	f	1	0.4338499892037362
7	29	n/a	n/a	n/a	f	3	0.03000000000000001	2	f	1	0.4253141360823065
7	30	n/a	n/a	n/a	f	3	0.04000000000000001	2	f	1	0.4058935018256307
7	31	n/a	n/a	n/a	f	3	0.05000000000000002	1	f	1	0.3864372307434678
7	32	n/a	n/a	n/a	j	3	0.04000000000000001	1	j	1	0.3658194674644619
7	33	n/a	n/a	n/a	f	3	0.03000000000000001	1	f	1	0.4129208982922137
7	34	n/a	n/a	n/a	f	3	0.02000000000000001	2	f	1	0.4519320849794894
7	35	n/a	n/a	n/a	f	3	0.03000000000000001	2	f	1	0.4236531513743103
7	36	n/a	n/a	n/a	f	3	0.04000000000000001	2	f	1	0.3337281949352473
7	37	n/a	n/a	n/a	f	3	0.05000000000000002	1	f	1	0.4278195828665048
7	38	n/a	n/a	n/a	j	3	0.04000000000000001	2	j	1	0.3596191424876451
7	39	n/a	n/a	n/a	f	3	0.05000000000000002	1	f	1	0.3807800186332315
7	40	n/a	n/a	n/a	f	3	0.04000000000000001	1	f	1	0.3535907317418605
7	41	n/a	n/a	n/a	f	3	0.03000000000000001	0	f	1	0.3595222088042647
7	42	n/a	n/a	n/a	f	3	0.04000000000000001	1	f	1	0.3813396668992937
7	43	n/a	n/a	n/a	f	3	0.03000000000000001	1	f	1	0.3551650466397405
7	44	n/a	n/a	n/a	j	3	0.02000000000000001	0	j	1	0.3517199144698679
7	45	n/a	n/a	n/a	f	3	0.03000000000000001	1	f	1	0.3712694130372256
7	46	n/a	n/a	n/a	f	3	0.02000000000000001	1	f	1	0.3604254014790058
7	47	n/a	n/a	n/a	f	3	0.01000000000000001	0	f	1	0.3484130555298179
7	48	n/a	n/a	n/a	f	3	0.02000000000000001	0	f	1	0.3454004181548953
7	49	n/a	n/a	n/a	f	3	0.03000000000000001	0	f	1	0.3684038866776973
7	50	n/a	n/a	n/a	j	3	0.04000000000000001	1	j	1	0.3273933031596243
7	51	n/a	n/a	n/a	f	3	0.03000000000000001	0	f	1	0.3875360006932169
7	52	n/a	n/a	n/a	f	3	0.04000000000000001	1	f	1	0.3443563869222999
7	53	n/a	n/a	n/a	f	3	0.03000000000000001	0	f	1	0.4044623069930822
7	54	n/a	n/a	n/a	f	3	0.04000000000000001	1	f	1	1.432906882837415
7	55	n/a	n/a	n/a	f	3	0.03000000000000001	2	f	1	0.3802614242304116
7	56	n/a	n/a	n/a	j	3	0.04000000000000001	1	j	1	0.351450496353209
7	57	n/a	n/a	n/a	f	3	0.03000000000000001	1	f	1	0.3731690251734108
7	58	n/a	n/a	n/a	f	3	0.02000000000000001	1	f	1	0.377125624101609
7	59	n/a	n/a	n/a	f	3	0.01000000000000001	1	f	1	0.3741608834825456
7	60	n/a	n/a	n/a	f	3	1.040834085586084e-17	0	f	1	0.3479001631494612
7	61	n/a	n/a	n/a	f	3	0.01000000000000001	0	f	1	0.3940493643749505
7	62	n/a	n/a	n/a	j	3	0.02000000000000001	1	j	1	0.3190647168084979
7	63	n/a	n/a	n/a	f	3	0.01000000000000001	0	f	1	0.3740628093946725
7	64	n/a	n/a	n/a	f	3	0.02000000000000001	1	f	1	0.3641057396307588
7	65	n/a	n/a	n/a	f	3	0.01000000000000001	0	f	1	0.4239373945165426
7	66	n/a	n/a	n/a	f	3	0.02000000000000001	2	f	1	0.3409357734490186
7	67	n/a	n/a	n/a	f	3	0.03000000000000001	0	f	1	0.360223836498335
7	68	n/a	n/a	n/a	j	3	0.04000000000000001	1	j	1	0.364949916722253
7	69	n/a	n/a	n/a	f	3	0.03000000000000001	1	f	1	0.3618839660193771
7	70	n/a	n/a	n/a	f	3	0.02000000000000001	0	f	1	0.4158636862412095
7	71	n/a	n/a	n/a	f	3	0.03000000000000001	2	f	1	0.3808683990500867
8	0	j	1	1.144805018324405	j	4	0.1	1	j	1	0.3391000234987587
8	1	n/a	n/a	n/a	j	4	0.09000000000000001	1	j	1	0.3335266301874071
8	2	n/a	n/a	n/a	f	4	0.08000000000000002	1	f	1	0.3772878453601152
8	3	n/a	n/a	n/a	j	4	0.07000000000000002	1	j	1	0.3274574503302574
8	4	n/a	n/a	n/a	j	4	0.06000000000000002	1	j	1	0.3929597171954811
8	5	n/a	n/a	n/a	j	4	0.05000000000000002	1	f	0	0.3352722891140729
8	6	n/a	n/a	n/a	j	4	0.04000000000000001	0	j	1	0.3640723831485957
8	7	n/a	n/a	n/a	j	4	0.05000000000000002	1	j	1	0.3509336125571281
8	8	n/a	n/a	n/a	f	4	0.04000000000000001	1	j	0	0.3546698300633579
8	9	n/a	n/a	n/a	j	4	0.05000000000000002	1	j	1	0.3488945870194584
8	10	n/a	n/a	n/a	j	4	0.04000000000000001	1	j	1	0.3538302145898342
8	11	n/a	n/a	n/a	j	4	0.03000000000000001	1	f	0	0.3428476450499147
8	12	n/a	n/a	n/a	j	4	0.02000000000000001	0	j	1	0.3408100451342762
8	13	n/a	n/a	n/a	j	4	0.03000000000000001	0	j	1	0.3930885819718242
8	14	n/a	n/a	n/a	f	4	0.04000000000000001	0	j	0	0.3649992388673127
8	15	n/a	n/a	n/a	j	4	0.03000000000000001	1	j	1	0.4256750708445907
8	16	n/a	n/a	n/a	j	4	0.02000000000000001	2	j	1	0.3927504548337311
8	17	n/a	n/a	n/a	j	4	0.03000000000000001	1	j	1	0.3586803127545863
8	18	n/a	n/a	n/a	j	4	0.02000000000000001	0	j	1	0.3569409258197993
8	19	n/a	n/a	n/a	j	4	0.03000000000000001	1	j	1	0.3557016020640731
8	20	n/a	n/a	n/a	f	4	0.02000000000000001	0	f	1	0.3696332320105284
8	21	n/a	n/a	n/a	j	4	0.03000000000000001	1	j	1	0.3661957979202271
8	22	n/a	n/a	n/a	j	4	0.02000000000000001	1	j	1	0.3797807476948947
8	23	n/a	n/a	n/a	j	4	0.01000000000000001	1	j	1	0.3685273344162852
8	24	n/a	n/a	n/a	j	4	1.040834085586084e-17	0	j	1	0.3749605852644891
8	25	n/a	n/a	n/a	j	4	0.01000000000000001	1	j	1	0.3567025833763182
8	26	n/a	n/a	n/a	f	4	1.040834085586084e-17	0	f	1	0.409369709668681
8	27	n/a	n/a	n/a	j	4	0.01000000000000001	2	j	1	0.3444031432736665
8	28	n/a	n/a	n/a	j	4	0.02000000000000001	0	j	1	0.3654964508023113
8	29	n/a	n/a	n/a	j	4	0.03000000000000001	0	f	0	0.4195873595308512
8	30	n/a	n/a	n/a	j	4	0.02000000000000001	2	j	1	0.3133413617033511
8	31	n/a	n/a	n/a	j	4	0.03000000000000001	0	j	1	0.4556389374192804
8	32	n/a	n/a	n/a	f	4	0.04000000000000001	0	j	0	0.390390693442896
8	33	n/a	n/a	n/a	j	4	0.05000000000000002	1	j	1	0.3966232347302139
8	34	n/a	n/a	n/a	j	4	0.04000000000000001	1	j	1	0.3463281290605664
8	35	n/a	n/a	n/a	j	4	0.03000000000000001	0	j	1	0.3836053460836411
8	36	n/a	n/a	n/a	j	4	0.04000000000000001	1	j	1	0.4285186447668821
8	37	n/a	n/a	n/a	j	4	0.03000000000000001	2	j	1	1.032961393706501
8	38	n/a	n/a	n/a	f	4	0.04000000000000001	2	f	1	0.3963409869465977
8	39	n/a	n/a	n/a	j	4	0.05000000000000002	1	j	1	0.396888091461733
8	40	n/a	n/a	n/a	j	4	0.04000000000000001	1	j	1	0.3918657938484102
8	41	n/a	n/a	n/a	j	4	0.03000000000000001	1	j	1	0.4088445578236133
8	42	n/a	n/a	n/a	j	4	0.02000000000000001	2	j	1	0.3531830408610404
8	43	n/a	n/a	n/a	j	4	0.03000000000000001	1	j	1	0.3547981246374547
8	44	n/a	n/a	n/a	f	4	0.02000000000000001	0	f	1	0.3347736517898738
8	45	n/a	n/a	n/a	j	4	0.03000000000000001	0	j	1	0.391763728344813
8	46	n/a	n/a	n/a	j	4	0.04000000000000001	1	j	1	0.3962106970138848
8	47	n/a	n/a	n/a	j	4	0.03000000000000001	1	j	1	0.3700149790383875
8	48	n/a	n/a	n/a	j	4	0.02000000000000001	1	j	1	0.3749491809867322
8	49	n/a	n/a	n/a	j	4	0.01000000000000001	1	j	1	0.3429269024636596
8	50	n/a	n/a	n/a	f	4	1.040834085586084e-17	0	f	1	0.357141065178439
8	51	n/a	n/a	n/a	j	4	0.01000000000000001	0	j	1	0.380044749006629
8	52	n/a	n/a	n/a	j	4	0.02000000000000001	1	j	1	0.3928690559696406
8	53	n/a	n/a	n/a	j	4	0.01000000000000001	1	j	1	0.4388768482021987
8	54	n/a	n/a	n/a	j	4	1.040834085586084e-17	2	j	1	0.3394398610107601
8	55	n/a	n/a	n/a	j	4	0.01000000000000001	0	j	1	0.3688232668209821
8	56	n/a	n/a	n/a	f	4	0.02000000000000001	1	f	1	0.309409566456452
8	57	n/a	n/a	n/a	j	4	0.01000000000000001	0	j	1	0.3931675541680306
8	58	n/a	n/a	n/a	j	4	0.02000000000000001	1	j	1	0.3740166234783828
8	59	n/a	n/a	n/a	j	4	0.01000000000000001	0	j	1	0.3696882559452206
8	60	n/a	n/a	n/a	j	4	0.02000000000000001	1	j	1	0.3919618721120059
8	61	n/a	n/a	n/a	j	4	0.01000000000000001	2	j	1	0.3488227422349155
8	62	n/a	n/a	n/a	f	4	0.02000000000000001	0	f	1	0.3371827350929379
8	63	n/a	n/a	n/a	j	4	0.03000000000000001	0	j	1	0.3736824879888445
8	64	n/a	n/a	n/a	j	4	0.04000000000000001	1	j	1	0.4116276907734573
8	65	n/a	n/a	n/a	j	4	0.03000000000000001	1	j	1	0.353628649841994
8	66	n/a	n/a	n/a	j	4	0.02000000000000001	0	j	1	0.3750275834463537
8	67	n/a	n/a	n/a	j	4	0.03000000000000001	1	j	1	0.3335654037073255
8	68	n/a	n/a	n/a	f	4	0.02000000000000001	0	f	1	0.3647169910836965
8	69	n/a	n/a	n/a	j	4	0.03000000000000001	1	j	1	0.3532973653636873
8	70	n/a	n/a	n/a	j	4	0.02000000000000001	0	j	1	0.4129764924291521
8	71	n/a	n/a	n/a	j	4	0.03000000000000001	0	f	0	0.3704648648854345
9	0	j	1	0.9281907810363919	j	8	0.1	0	j	1	0.5904455464333296
9	1	n/a	n/a	n/a	j	8	0.11	1	j	1	0.5874822312034667
9	2	n/a	n/a	n/a	f	8	0.1	1	j	0	0.5853593868669122
9	3	n/a	n/a	n/a	j	8	0.09000000000000001	1	j	1	0.6073724227026105
9	4	n/a	n/a	n/a	j	8	0.08000000000000002	1	j	1	0.5964668297674507
9	5	n/a	n/a	n/a	j	8	0.07000000000000002	1	f	0	0.5932543382514268
9	6	n/a	n/a	n/a	j	8	0.06000000000000002	1	j	1	0.751351224957034
9	7	n/a	n/a	n/a	j	8	0.05000000000000002	2	j	1	0.5411864891648293
9	8	n/a	n/a	n/a	f	8	0.06000000000000002	2	j	0	0.5693915823940188
9	9	n/a	n/a	n/a	j	8	0.05000000000000002	1	j	1	0.6301327019464225
9	10	n/a	n/a	n/a	j	8	0.04000000000000001	2	j	1	0.6130781015381217
9	11	n/a	n/a	n/a	j	8	0.05000000000000002	1	j	1	0.6190483523532748
9	12	n/a	n/a	n/a	j	8	0.04000000000000001	1	j	1	0.6166056268848479
9	13	n/a	n/a	n/a	j	8	0.03000000000000001	1	f	0	0.5659102429635823
9	14	n/a	n/a	n/a	f	8	0.04000000000000001	1	j	0	0.6425065528601408
9	15	n/a	n/a	n/a	j	8	0.03000000000000001	2	j	1	0.5918593504466116
9	16	n/a	n/a	n/a	j	8	0.04000000000000001	1	j	1	0.6388256445061415
9	17	n/a	n/a	n/a	j	8	0.03000000000000001	2	j	1	0.5234653283841908
9	18	n/a	n/a	n/a	j	8	0.04000000000000001	0	j	1	0.6307981221470982
9	19	n/a	n/a	n/a	j	8	0.05000000000000002	0	f	0	0.5729553152341396
9	20	n/a	n/a	n/a	f	8	0.06000000000000002	0	j	0	0.6114940936677158
9	21	n/a	n/a	n/a	j	8	0.05000000000000002	1	j	1	0.5776186736766249
9	22	n/a	n/a	n/a	j	8	0.04000000000000001	1	j	1	0.6165967888664454
9	23	n/a	n/a	n/a	j	8	0.03000000000000001	2	j	1	0.5487832273356616
9	24	n/a	n/a	n/a	j	8	0.04000000000000001	1	j	1	0.5607952885329723
9	25	n/a	n/a	n/a	j	8	0.03000000000000001	1	j	1	0.5389099766034633
9	26	n/a	n/a	n/a	f	8	0.02000000000000001	0	f	1	0.5844989588949829
9	27	n/a	n/a	n/a	j	8	0.03000000000000001	1	j	1	0.5672824226785451
9	28	n/a	n/a	n/a	j	8	0.02000000000000001	1	j	1	0.5886314637027681
9	29	n/a	n/a	n/a	j	8	0.01000000000000001	1	j	1	0.5704148013610393
9	30	n/a	n/a	n/a	j	8	1.040834085586084e-17	0	j	1	0.5351347005926073
9	31	n/a	n/a	n/a	j	8	0.01000000000000001	0	j	1	0.5324912660289556
9	32	n/a	n/a	n/a	f	8	0.02000000000000001	0	f	1	0.6423155369702727
9	33	n/a	n/a	n/a	j	8	0.03000000000000001	2	j	1	0.5823002785909921
9	34	n/a	n/a	n/a	j	8	0.04000000000000001	1	j	1	0.5713408018928021
9	35	n/a	n/a	n/a	j	8	0.03000000000000001	1	j	1	0.5272257791366428
9	36	n/a	n/a	n/a	j	8	0.02000000000000001	0	j	1	0.5963690408971161
9	37	n/a	n/a	n/a	j	8	0.03000000000000001	1	j	1	0.5701368302106857
9	38	n/a	n/a	n/a	f	8	0.02000000000000001	1	f	1	0.5357590664643794
9	39	n/a	n/a	n/a	j	8	0.01000000000000001	0	j	1	0.6201280208770186
9	40	n/a	n/a	n/a	j	8	0.02000000000000001	2	j	1	0.5580409504473209
9	41	n/a	n/a	n/a	j	8	0.03000000000000001	0	j	1	0.5310375480912626
9	42	n/a	n/a	n/a	j	8	0.04000000000000001	0	j	1	0.599999486701563
9	43	n/a	n/a	n/a	j	8	0.05000000000000002	1	j	1	0.5499036652036011
9	44	n/a	n/a	n/a	f	8	0.04000000000000001	1	f	1	0.546907278476283
9	45	n/a	n/a	n/a	j	8	0.03000000000000001	0	j	1	0.5839082347229123
9	46	n/a	n/a	n/a	j	8	0.04000000000000001	1	j	1	0.6048022585455328
9	47	n/a	n/a	n/a	j	8	0.03000000000000001	1	j	1	0.5687903093639761
9	48	n/a	n/a	n/a	j	8	0.02000000000000001	1	j	1	0.5241706622764468
9	49	n/a	n/a	n/a	j	8	0.01000000000000001	0	j	1	0.5447331164032221
9	50	n/a	n/a	n/a	f	8	0.02000000000000001	0	f	1	0.5485041157808155
9	51	n/a	n/a	n/a	j	8	0.03000000000000001	0	j	1	0.6022449238225818
9	52	n/a	n/a	n/a	j	8	0.04000000000000001	1	j	1	0.5515897385776043
9	53	n/a	n/a	n/a	j	8	0.03000000000000001	0	j	1	0.5496650375425816
9	54	n/a	n/a	n/a	j	8	0.04000000000000001	1	j	1	0.5225943517871201
9	55	n/a	n/a	n/a	j	8	0.03000000000000001	0	j	1	0.5675290329381824
9	56	n/a	n/a	n/a	f	8	0.04000000000000001	1	f	1	0.5486421035602689
9	57	n/a	n/a	n/a	j	8	0.03000000000000001	0	j	1	0.5597144793719053
9	58	n/a	n/a	n/a	j	8	0.04000000000000001	1	j	1	0.5486101727001369
9	59	n/a	n/a	n/a	j	8	0.03000000000000001	0	j	1	0.5846124284435064
9	60	n/a	n/a	n/a	j	8	0.04000000000000001	1	j	1	0.5656068979296833
9	61	n/a	n/a	n/a	j	8	0.03000000000000001	1	j	1	0.5383292308542877
9	62	n/a	n/a	n/a	f	8	0.02000000000000001	0	f	1	0.5589276070240885
9	63	n/a	n/a	n/a	j	8	0.03000000000000001	1	j	1	0.564329941291362
9	64	n/a	n/a	n/a	j	8	0.02000000000000001	0	j	1	0.5451969718560576
9	65	n/a	n/a	n/a	j	8	0.03000000000000001	0	j	1	0.5982452749740332
9	66	n/a	n/a	n/a	j	8	0.04000000000000001	1	j	1	0.571191695285961
9	67	n/a	n/a	n/a	j	8	0.03000000000000001	1	j	1	0.5673976026009768
9	68	n/a	n/a	n/a	f	8	0.02000000000000001	1	f	1	0.5562525265850127
9	69	n/a	n/a	n/a	j	8	0.01000000000000001	0	j	1	0.5461671624798328
9	70	n/a	n/a	n/a	j	8	0.02000000000000001	0	j	1	0.6000659146811813
9	71	n/a	n/a	n/a	j	8	0.03000000000000001	1	j	1	0.6210577273741364
10	0	f	1	3.550961951259524	f	1	0.1	2	f	1	0.3743558910209686
10	1	n/a	n/a	n/a	j	1	0.11	2	f	0	0.3540725484490395
10	2	n/a	n/a	n/a	f	1	0.1	2	j	0	0.4070974735077471
10	3	n/a	n/a	n/a	f	1	0.09000000000000001	1	f	1	0.3716637045145035
10	4	n/a	n/a	n/a	f	1	0.08000000000000002	1	f	1	0.4019463113509119
10	5	n/a	n/a	n/a	j	1	0.07000000000000002	1	j	1	0.4150163731537759
10	6	n/a	n/a	n/a	f	1	0.06000000000000002	1	f	1	0.3961197505705059
10	7	n/a	n/a	n/a	f	1	0.05000000000000002	1	f	1	0.4168894712347537
10	8	n/a	n/a	n/a	f	1	0.04000000000000001	1	f	1	0.3839163884986192
10	9	n/a	n/a	n/a	j	1	0.03000000000000001	1	j	1	0.4458717431407422
10	10	n/a	n/a	n/a	f	1	0.02000000000000001	2	f	1	0.3489832528866827
10	11	n/a	n/a	n/a	f	1	0.03000000000000001	0	f	1	0.4411151576787233
10	12	n/a	n/a	n/a	f	1	0.04000000000000001	2	f	1	0.3886932160239667
10	13	n/a	n/a	n/a	j	1	0.05000000000000002	1	j	1	0.4250911886338145
10	14	n/a	n/a	n/a	f	1	0.04000000000000001	2	f	1	0.3900480049196631
10	15	n/a	n/a	n/a	f	1	0.05000000000000002	1	f	1	0.4417460809927434
10	16	n/a	n/a	n/a	f	1	0.04000000000000001	2	f	1	0.3513341760262847
10	17	n/a	n/a	n/a	j	1	0.05000000000000002	1	j	1	0.4288670350797474
10	18	n/a	n/a	n/a	f	1	0.04000000000000001	2	f	1	0.3922096227761358
10	19	n/a	n/a	n/a	f	1	0.05000000000000002	1	f	1	0.3564189102035016
10	20	n/a	n/a	n/a	f	1	0.04000000000000001	1	f	1	0.4008988589048386
10	21	n/a	n/a	n/a	j	1	0.03000000000000001	1	j	1	0.3815620439127088
10	22	n/a	n/a	n/a	f	1	0.02000000000000001	1	f	1	0.3778184137772769
10	23	n/a	n/a	n/a	f	1	0.01000000000000001	1	f	1	0.3915176885202527
10	24	n/a	n/a	n/a	f	1	1.040834085586084e-17	2	f	1	0.3487192513421178
10	25	n/a	n/a	n/a	j	1	0.01000000000000001	0	j	1	0.3887060454580933
10	26	n/a	n/a	n/a	f	1	0.02000000000000001	1	f	1	0.3687251929659396
10	27	n/a	n/a	n/a	f	1	0.01000000000000001	0	f	1	0.4214533302001655
10	28	n/a	n/a	n/a	f	1	0.02000000000000001	2	f	1	0.3795731959398836
10	29	n/a	n/a	n/a	j	1	0.03000000000000001	1	j	1	0.3614255273714662
10	30	n/a	n/a	n/a	f	1	0.02000000000000001	1	f	1	0.3180896793492138
10	31	n/a	n/a	n/a	f	1	0.01000000000000001	0	f	1	0.4333638958632946
10	32	n/a	n/a	n/a	f	1	0.02000000000000001	2	f	1	0.3823614604771137
10	33	n/a	n/a	n/a	j	1	0.03000000000000001	1	j	1	0.3634716803207994
10	34	n/a	n/a	n/a	f	1	0.02000000000000001	0	f	1	0.3602865582797676
10	35	n/a	n/a	n/a	f	1	0.03000000000000001	1	f	1	0.3898929113056511
10	36	n/a	n/a	n/a	f	1	0.02000000000000001	1	f	1	0.3702179691754282
10	37	n/a	n/a	n/a	j	1	0.01000000000000001	0	j	1	0.3512988237198442
10	38	n/a	n/a	n/a	f	1	0.02000000000000001	0	f	1	0.3625077619217336
10	39	n/a	n/a	n/a	f	1	0.03000000000000001	1	f	1	0.3902119365520775
10	40	n/a	n/a	n/a	f	1	0.02000000000000001	1	f	1	0.3784054319839925
10	41	n/a	n/a	n/a	j	1	0.01000000000000001	1	j	1	0.3590689019765705
10	42	n/a	n/a	n/a	f	1	1.040834085586084e-17	0	f	1	0.316388210747391
10	43	n/a	n/a	n/a	f	1	0.01000000000000001	0	f	1	0.4573244405910373
10	44	n/a	n/a	n/a	f	1	0.02000000000000001	2	f	1	0.3753947902005166
10	45	n/a	n/a	n/a	j	1	0.03000000000000001	1	j	1	0.3330448137130588
10	46	n/a	n/a	n/a	f	1	0.02000000000000001	0	f	1	0.3720346176996827
10	47	n/a	n/a	n/a	f	1	0.03000000000000001	1	f	1	0.4414706756360829
10	48	n/a	n/a	n/a	f	1	0.02000000000000001	2	f	1	0.4069631919264793
10	49	n/a	n/a	n/a	j	1	0.03000000000000001	1	j	1	0.3569400706328452
10	50	n/a	n/a	n/a	f	1	0.02000000000000001	0	f	1	0.3772892707493156
10	51	n/a	n/a	n/a	f	1	0.03000000000000001	1	f	1	0.3819252597168088
10	52	n/a	n/a	n/a	f	1	0.02000000000000001	1	f	1	0.3480760687962174
10	53	n/a	n/a	n/a	j	1	0.01000000000000001	0	j	1	0.3849227868486196
10	54	n/a	n/a	n/a	f	1	0.02000000000000001	1	f	1	0.3998491258826107
10	55	n/a	n/a	n/a	f	1	0.01000000000000001	2	f	1	0.3977120264898986
10	56	n/a	n/a	n/a	f	1	0.02000000000000001	1	f	1	0.3879037781152874
10	57	n/a	n/a	n/a	j	1	0.01000000000000001	1	j	1	0.3698165505193174
10	58	n/a	n/a	n/a	f	1	1.040834085586084e-17	0	f	1	0.3577312191482633
10	59	n/a	n/a	n/a	f	1	0.01000000000000001	0	f	1	0.4111957664135844
10	60	n/a	n/a	n/a	f	1	0.02000000000000001	2	f	1	0.3766757384873927
10	61	n/a	n/a	n/a	j	1	0.03000000000000001	1	j	1	0.3417024037335068
10	62	n/a	n/a	n/a	f	1	0.02000000000000001	0	f	1	0.3649091476108879
10	63	n/a	n/a	n/a	f	1	0.03000000000000001	1	f	1	0.387083834502846
10	64	n/a	n/a	n/a	f	1	0.02000000000000001	1	f	1	0.3736431442666799
10	65	n/a	n/a	n/a	j	1	0.01000000000000001	0	j	1	0.3876221007667482
10	66	n/a	n/a	n/a	f	1	0.02000000000000001	1	f	1	0.3535422650165856
10	67	n/a	n/a	n/a	f	1	0.01000000000000001	0	f	1	0.4065894277300686
10	68	n/a	n/a	n/a	f	1	0.02000000000000001	2	f	1	0.3083204897120595
10	69	n/a	n/a	n/a	j	1	0.03000000000000001	0	j	1	0.4035189154092222
10	70	n/a	n/a	n/a	f	1	0.04000000000000001	1	f	1	0.3765283424872905
10	71	n/a	n/a	n/a	f	1	0.03000000000000001	1	f	1	0.3967153215780854
11	0	f	1	1.015658757649362	f	9	0.1	0	f	1	0.8668774685356766
11	1	n/a	n/a	n/a	j	9	0.11	0	j	1	1.000772332074121
11	2	n/a	n/a	n/a	f	9	0.12	1	f	1	0.9691052865236998
11	3	n/a	n/a	n/a	f	9	0.11	1	f	1	0.9814948178827763
11	4	n/a	n/a	n/a	f	9	0.1	1	f	1	0.9488216587342322
11	5	n/a	n/a	n/a	j	9	0.09000000000000001	1	j	1	1.003598800161853
11	6	n/a	n/a	n/a	f	9	0.08000000000000002	1	f	1	0.9693114126566797
11	7	n/a	n/a	n/a	f	9	0.07000000000000002	1	f	1	1.005472183227539
11	8	n/a	n/a	n/a	f	9	0.06000000000000002	1	f	1	0.9229854503646493
11	9	n/a	n/a	n/a	j	9	0.05000000000000002	0	j	1	0.9346174746751785
11	10	n/a	n/a	n/a	f	9	0.06000000000000002	1	f	1	1.036903452593833
11	11	n/a	n/a	n/a	f	9	0.05000000000000002	2	f	1	0.9768947514239699
11	12	n/a	n/a	n/a	f	9	0.06000000000000002	1	f	1	1.011309862835333
11	13	n/a	n/a	n/a	j	9	0.05000000000000002	1	j	1	1.008119894191623
11	14	n/a	n/a	n/a	f	9	0.04000000000000001	1	f	1	1.301068150438368
11	15	n/a	n/a	n/a	f	9	0.03000000000000001	2	f	1	0.977403367171064
11	16	n/a	n/a	n/a	f	9	0.04000000000000001	1	f	1	0.996080748969689
11	17	n/a	n/a	n/a	j	9	0.03000000000000001	1	j	1	0.9948613820597529
11	18	n/a	n/a	n/a	f	9	0.02000000000000001	1	f	1	0.9508179193362594
11	19	n/a	n/a	n/a	f	9	0.01000000000000001	0	f	1	0.9937563398852944
11	20	n/a	n/a	n/a	f	9	0.02000000000000001	1	f	1	0.9677011757157743
11	21	n/a	n/a	n/a	j	9	0.01000000000000001	0	j	1	1.02859738888219
11	22	n/a	n/a	n/a	f	9	0.02000000000000001	2	f	1	0.9538128806743771
11	23	n/a	n/a	n/a	f	9	0.03000000000000001	1	f	1	1.015156413661316
11	24	n/a	n/a	n/a	f	9	0.02000000000000001	2	f	1	0.9246564134955406
11	25	n/a	n/a	n/a	j	9	0.03000000000000001	0	j	1	1.001025784993544
11	26	n/a	n/a	n/a	f	9	0.04000000000000001	1	f	1	0.9493941369000822
11	27	n/a	n/a	n/a	f	9	0.03000000000000001	0	f	1	0.9393204618245363
11	28	n/a	n/a	n/a	f	9	0.04000000000000001	0	f	1	0.9528603660874069
11	29	n/a	n/a	n/a	j	9	0.05000000000000002	1	j	1	0.9488262203522027
11	30	n/a	n/a	n/a	f	9	0.04000000000000001	1	f	1	0.9048526068218052
11	31	n/a	n/a	n/a	f	9	0.03000000000000001	0	f	1	0.9870818955823779
11	32	n/a	n/a	n/a	f	9	0.04000000000000001	1	f	1	0.9529955028556287
11	33	n/a	n/a	n/a	j	9	0.03000000000000001	0	j	1	0.9580081070307642
11	34	n/a	n/a	n/a	f	9	0.04000000000000001	1	f	1	0.992932119872421
11	35	n/a	n/a	n/a	f	9	0.03000000000000001	1	f	1	0.9628177210688591
11	36	n/a	n/a	n/a	f	9	0.02000000000000001	0	f	1	0.9273982068989426
11	37	n/a	n/a	n/a	j	9	0.03000000000000001	0	j	1	1.041004311060533
11	38	n/a	n/a	n/a	f	9	0.04000000000000001	2	f	1	0.9168940328527242
11	39	n/a	n/a	n/a	f	9	0.05000000000000002	0	f	1	0.9592414437793195
11	40	n/a	n/a	n/a	f	9	0.06000000000000002	1	f	1	0.9087932400871068
11	41	n/a	n/a	n/a	j	9	0.05000000000000002	0	j	1	0.9427809889893979
11	42	n/a	n/a	n/a	f	9	0.06000000000000002	1	f	1	0.8842613578308374
11	43	n/a	n/a	n/a	f	9	0.05000000000000002	0	f	1	0.9374276918824762
11	44	n/a	n/a	n/a	f	9	0.06000000000000002	1	f	1	0.9411610586103052
11	45	n/a	n/a	n/a	j	9	0.05000000000000002	1	j	1	0.9721116514410824
11	46	n/a	n/a	n/a	f	9	0.04000000000000001	1	f	1	0.9442957181017846
11	47	n/a	n/a	n/a	f	9	0.03000000000000001	0	f	1	0.9324071048758924
11	48	n/a	n/a	n/a	f	9	0.04000000000000001	0	f	1	0.9605511869303882
11	49	n/a	n/a	n/a	j	9	0.05000000000000002	1	j	1	0.924294623080641
11	50	n/a	n/a	n/a	f	9	0.04000000000000001	0	f	1	0.9994001525919884
11	51	n/a	n/a	n/a	f	9	0.05000000000000002	1	f	1	0.93131033051759
11	52	n/a	n/a	n/a	f	9	0.04000000000000001	0	f	1	0.9288071643095464
11	53	n/a	n/a	n/a	j	9	0.05000000000000002	0	j	1	0.9636234096251428
11	54	n/a	n/a	n/a	f	9	0.06000000000000002	1	f	1	0.9287698166444898
11	55	n/a	n/a	n/a	f	9	0.05000000000000002	0	f	1	0.9517695787362754
11	56	n/a	n/a	n/a	f	9	0.06000000000000002	1	f	1	0.867306541884318
11	57	n/a	n/a	n/a	j	9	0.05000000000000002	0	j	1	1.080643570283428
11	58	n/a	n/a	n/a	f	9	0.06000000000000002	2	f	1	0.8946540583856404
11	59	n/a	n/a	n/a	f	9	0.07000000000000002	0	f	1	0.9233686227817088
11	60	n/a	n/a	n/a	f	9	0.08000000000000002	1	f	1	0.8725021795835346
11	61	n/a	n/a	n/a	j	9	0.07000000000000002	0	j	1	0.8934566441457719
11	62	n/a	n/a	n/a	f	9	0.08000000000000002	0	f	1	0.8264074320904911
11	63	n/a	n/a	n/a	f	9	0.09000000000000001	0	f	1	0.9123464243020862
11	64	n/a	n/a	n/a	f	9	0.1	1	f	1	0.9409654808696359
11	65	n/a	n/a	n/a	j	9	0.09000000000000001	1	j	1	0.9132248135283589
11	66	n/a	n/a	n/a	f	9	0.08000000000000002	1	f	1	0.9012076207436621
11	67	n/a	n/a	n/a	f	9	0.07000000000000002	0	f	1	0.9621098211500794
11	68	n/a	n/a	n/a	f	9	0.08000000000000002	1	f	1	0.926082476740703
11	69	n/a	n/a	n/a	j	9	0.07000000000000002	1	j	1	0.9236611339729279
11	70	n/a	n/a	n/a	f	9	0.06000000000000002	0	f	1	0.8979808744043112
11	71	n/a	n/a	n/a	f	9	0.07000000000000002	0	f	1	0.9689530436880887
12	0	f	1	0.2561066702473909	f	11	0.06000000000000002	1	f	1	0.8736300296150148
12	1	n/a	n/a	n/a	f	11	0.05000000000000002	0	f	1	0.9722872723359615
12	2	n/a	n/a	n/a	j	11	0.06000000000000002	1	j	1	0.9532329901121557
12	3	n/a	n/a	n/a	f	11	0.05000000000000002	1	f	1	0.9732283826451749
12	4	n/a	n/a	n/a	f	11	0.04000000000000001	1	f	1	0.9671768792904913
12	5	n/a	n/a	n/a	f	11	0.03000000000000001	1	f	1	0.932272253325209
12	6	n/a	n/a	n/a	f	11	0.02000000000000001	0	f	1	0.946042517432943
12	7	n/a	n/a	n/a	f	11	0.03000000000000001	0	f	1	0.9350089151412249
12	8	n/a	n/a	n/a	j	11	0.04000000000000001	0	j	1	0.9328812239691615
12	9	n/a	n/a	n/a	f	11	0.05000000000000002	0	f	1	0.9068400296382606
12	10	n/a	n/a	n/a	f	11	0.06000000000000002	0	f	1	0.879370205802843
12	11	n/a	n/a	n/a	f	11	0.07000000000000002	0	f	1	0.8450315003283322
12	12	n/a	n/a	n/a	f	11	0.08000000000000002	0	f	1	0.8897443749010563
12	13	n/a	n/a	n/a	f	11	0.09000000000000001	0	f	1	0.8954406455159187
12	14	n/a	n/a	n/a	j	11	0.1	1	j	1	0.9172124878969043
12	15	n/a	n/a	n/a	f	11	0.09000000000000001	1	f	1	0.8555125815328211
12	16	n/a	n/a	n/a	f	11	0.08000000000000002	0	f	1	0.9164909033570439
12	17	n/a	n/a	n/a	f	11	0.09000000000000001	1	f	1	0.8564745045732707
12	18	n/a	n/a	n/a	f	11	0.08000000000000002	0	f	1	0.8765790900215507
12	19	n/a	n/a	n/a	f	11	0.09000000000000001	0	f	1	0.9212828411255032
12	20	n/a	n/a	n/a	j	11	0.1	0	f	0	0.8463155848439783
12	21	n/a	n/a	n/a	f	11	0.09000000000000001	0	f	1	0.940808676648885
12	22	n/a	n/a	n/a	f	11	0.1	1	f	1	0.8962235264480114
12	23	n/a	n/a	n/a	f	11	0.09000000000000001	1	f	1	0.8843716909177601
12	24	n/a	n/a	n/a	f	11	0.08000000000000002	0	f	1	0.9290500683709979
12	25	n/a	n/a	n/a	f	11	0.09000000000000001	1	f	1	0.9171879694331437
12	26	n/a	n/a	n/a	j	11	0.08000000000000002	1	j	1	0.9546182844787836
12	27	n/a	n/a	n/a	f	11	0.07000000000000002	1	f	1	0.9516318759415299
12	28	n/a	n/a	n/a	f	11	0.06000000000000002	1	f	1	0.8908876203931868
12	29	n/a	n/a	n/a	f	11	0.05000000000000002	0	f	1	0.8808373233769089
12	30	n/a	n/a	n/a	f	11	0.06000000000000002	0	f	1	0.8857564150821418
12	31	n/a	n/a	n/a	f	11	0.07000000000000002	0	f	1	0.9577771772164851
12	32	n/a	n/a	n/a	j	11	0.08000000000000002	1	j	1	0.8986959017347544
12	33	n/a	n/a	n/a	f	11	0.07000000000000002	0	f	1	0.9126212596893311
12	34	n/a	n/a	n/a	f	11	0.08000000000000002	1	f	1	0.9495874338317662
12	35	n/a	n/a	n/a	f	11	0.07000000000000002	1	f	1	0.8997000190429389
12	36	n/a	n/a	n/a	f	11	0.06000000000000002	0	f	1	0.937458767555654
12	37	n/a	n/a	n/a	f	11	0.07000000000000002	1	f	1	0.9167885463684797
12	38	n/a	n/a	n/a	j	11	0.06000000000000002	0	j	1	0.9350311525631696
12	39	n/a	n/a	n/a	f	11	0.07000000000000002	1	f	1	1.809461739379913
12	40	n/a	n/a	n/a	f	11	0.06000000000000002	2	f	1	0.9163269714917988
12	41	n/a	n/a	n/a	f	11	0.07000000000000002	0	f	1	0.825122207403183
12	42	n/a	n/a	n/a	f	11	0.08000000000000002	0	f	1	0.9327352533582598
12	43	n/a	n/a	n/a	f	11	0.09000000000000001	1	f	1	0.9050826814491302
12	44	n/a	n/a	n/a	j	11	0.08000000000000002	1	j	1	0.9170015149284154
12	45	n/a	n/a	n/a	f	11	0.07000000000000002	0	f	1	0.9000124873127788
12	46	n/a	n/a	n/a	f	11	0.08000000000000002	0	f	1	0.8989151427522302
12	47	n/a	n/a	n/a	f	11	0.09000000000000001	1	f	1	0.8568092102650553
12	48	n/a	n/a	n/a	f	11	0.08000000000000002	0	f	1	0.8457049035932869
12	49	n/a	n/a	n/a	f	11	0.09000000000000001	0	f	1	0.9547320385463536
12	50	n/a	n/a	n/a	j	11	0.1	1	j	1	0.928680865559727
12	51	n/a	n/a	n/a	f	11	0.09000000000000001	1	f	1	0.8936017595697194
12	52	n/a	n/a	n/a	f	11	0.08000000000000002	0	f	1	0.9205512781627476
12	53	n/a	n/a	n/a	f	11	0.09000000000000001	1	f	1	0.8535308609716594
12	54	n/a	n/a	n/a	f	11	0.08000000000000002	0	f	1	0.9156370330601931
12	55	n/a	n/a	n/a	f	11	0.09000000000000001	1	f	1	0.9373661105055362
12	56	n/a	n/a	n/a	j	11	0.08000000000000002	1	j	1	0.9103145264089108
12	57	n/a	n/a	n/a	f	11	0.07000000000000002	0	f	1	0.9536024776753038
12	58	n/a	n/a	n/a	f	11	0.08000000000000002	1	f	1	0.9404716901481152
12	59	n/a	n/a	n/a	f	11	0.07000000000000002	1	f	1	0.8561440750490874
12	60	n/a	n/a	n/a	f	11	0.06000000000000002	0	f	1	0.8764125925954431
12	61	n/a	n/a	n/a	f	11	0.07000000000000002	0	f	1	0.920329186366871
12	62	n/a	n/a	n/a	j	11	0.08000000000000002	1	j	1	0.9169829837046564
12	63	n/a	n/a	n/a	f	11	0.07000000000000002	0	f	1	0.9389960195403546
12	64	n/a	n/a	n/a	f	11	0.08000000000000002	1	f	1	0.9489650635514408
12	65	n/a	n/a	n/a	f	11	0.07000000000000002	1	f	1	0.8818887670058757
12	66	n/a	n/a	n/a	f	11	0.06000000000000002	0	f	1	0.9527523135766387
12	67	n/a	n/a	n/a	f	11	0.07000000000000002	1	f	1	0.9810041631571949
12	68	n/a	n/a	n/a	j	11	0.06000000000000002	1	j	1	0.9229868757538497
12	69	n/a	n/a	n/a	f	11	0.05000000000000002	0	f	1	0.9587550654541701
12	70	n/a	n/a	n/a	f	11	0.06000000000000002	1	f	1	0.9717800817452371
12	71	n/a	n/a	n/a	f	11	0.05000000000000002	1	f	1	0.9750279255677015
13	0	f	1	1.002309584058821	f	5	1.040834085586084e-17	2	f	1	0.611536288401112
13	1	n/a	n/a	n/a	j	5	0.01000000000000001	2	j	1	0.629469562554732
13	2	n/a	n/a	n/a	f	5	0.02000000000000001	2	f	1	0.5944332210347056
13	3	n/a	n/a	n/a	f	5	0.03000000000000001	1	f	1	0.5650674914941192
13	4	n/a	n/a	n/a	f	5	0.02000000000000001	1	f	1	0.5750060298014432
13	5	n/a	n/a	n/a	j	5	0.01000000000000001	1	j	1	0.6271842119749635
13	6	n/a	n/a	n/a	f	5	1.040834085586084e-17	2	f	1	0.592192345764488
13	7	n/a	n/a	n/a	f	5	0.01000000000000001	2	f	1	0.6124209493864328
13	8	n/a	n/a	n/a	f	5	0.02000000000000001	2	f	1	0.5607895865105093
13	9	n/a	n/a	n/a	j	5	0.03000000000000001	1	j	1	0.5599120527040213
13	10	n/a	n/a	n/a	f	5	0.02000000000000001	0	f	1	0.5424095625057817
13	11	n/a	n/a	n/a	f	5	0.03000000000000001	0	f	1	0.583181518362835
13	12	n/a	n/a	n/a	f	5	0.04000000000000001	1	f	1	0.5250122733414173
13	13	n/a	n/a	n/a	j	5	0.03000000000000001	0	j	1	0.5781344170682132
13	14	n/a	n/a	n/a	f	5	0.04000000000000001	1	f	1	0.5430744125042111
13	15	n/a	n/a	n/a	f	5	0.03000000000000001	0	f	1	0.5394271453842521
13	16	n/a	n/a	n/a	f	5	0.04000000000000001	0	f	1	0.5752115859650075
13	17	n/a	n/a	n/a	j	5	0.05000000000000002	1	j	1	0.4820992269087583
13	18	n/a	n/a	n/a	f	5	0.04000000000000001	0	f	1	0.5508912468794733
13	19	n/a	n/a	n/a	f	5	0.05000000000000002	1	f	1	0.58984683919698
13	20	n/a	n/a	n/a	f	5	0.04000000000000001	1	f	1	0.5250128435436636
13	21	n/a	n/a	n/a	j	5	0.03000000000000001	0	j	1	0.4970597776118666
13	22	n/a	n/a	n/a	f	5	0.04000000000000001	0	f	1	0.5489665460772812
13	23	n/a	n/a	n/a	f	5	0.05000000000000002	1	f	1	0.6487733060494065
13	24	n/a	n/a	n/a	f	5	0.04000000000000001	2	f	1	0.5662512208800763
13	25	n/a	n/a	n/a	j	5	0.05000000000000002	1	j	1	0.6036441877949983
13	26	n/a	n/a	n/a	f	5	0.04000000000000001	1	f	1	0.5616671198513359
13	27	n/a	n/a	n/a	f	5	0.03000000000000001	1	f	1	0.6048749585170299
13	28	n/a	n/a	n/a	f	5	0.02000000000000001	1	f	1	0.5611308494117111
13	29	n/a	n/a	n/a	j	5	0.01000000000000001	0	j	1	0.6134971966966987
13	30	n/a	n/a	n/a	f	5	0.02000000000000001	2	f	1	0.5806792075745761
13	31	n/a	n/a	n/a	f	5	0.03000000000000001	1	f	1	0.5700629898346961
13	32	n/a	n/a	n/a	f	5	0.02000000000000001	1	f	1	0.5824924348853528
13	33	n/a	n/a	n/a	j	5	0.01000000000000001	1	j	1	0.5155410117004067
13	34	n/a	n/a	n/a	f	5	1.040834085586084e-17	0	f	1	0.6003971993923187
13	35	n/a	n/a	n/a	f	5	0.01000000000000001	2	f	1	0.5885296836495399
13	36	n/a	n/a	n/a	f	5	0.02000000000000001	1	f	1	0.6803057852666825
13	37	n/a	n/a	n/a	j	5	0.01000000000000001	2	j	1	0.5332881165668368
13	38	n/a	n/a	n/a	f	5	0.02000000000000001	0	f	1	0.5662820115685463
13	39	n/a	n/a	n/a	f	5	0.03000000000000001	1	f	1	0.5953734763897955
13	40	n/a	n/a	n/a	f	5	0.02000000000000001	1	f	1	0.5441475235857069
13	41	n/a	n/a	n/a	j	5	0.01000000000000001	0	j	1	0.5331623882520944
13	42	n/a	n/a	n/a	f	5	0.02000000000000001	0	f	1	0.5621372475288808
13	43	n/a	n/a	n/a	f	5	0.03000000000000001	1	f	1	0.574368549278006
13	44	n/a	n/a	n/a	f	5	0.02000000000000001	1	f	1	0.5880678240209818
13	45	n/a	n/a	n/a	j	5	0.01000000000000001	1	j	1	0.5130472539458424
13	46	n/a	n/a	n/a	f	5	1.040834085586084e-17	0	f	1	0.5500057304743677
13	47	n/a	n/a	n/a	f	5	0.01000000000000001	0	f	1	0.5629514893516898
13	48	n/a	n/a	n/a	f	5	0.02000000000000001	0	f	1	0.5531523642130196
13	49	n/a	n/a	n/a	j	5	0.03000000000000001	0	j	1	0.5757324611768126
13	50	n/a	n/a	n/a	f	5	0.04000000000000001	1	f	1	0.5268691207747906
13	51	n/a	n/a	n/a	f	5	0.03000000000000001	0	f	1	0.6038158172741532
13	52	n/a	n/a	n/a	f	5	0.04000000000000001	1	f	1	0.5687669313047081
13	53	n/a	n/a	n/a	j	5	0.03000000000000001	1	j	1	0.5507566803134978
13	54	n/a	n/a	n/a	f	5	0.02000000000000001	0	f	1	0.5718719405122101
13	55	n/a	n/a	n/a	f	5	0.03000000000000001	1	f	1	0.53166419477202
13	56	n/a	n/a	n/a	f	5	0.02000000000000001	1	j	0	0.5225989136379212
13	57	n/a	n/a	n/a	j	5	0.03000000000000001	1	f	0	0.592583216028288
13	58	n/a	n/a	n/a	f	5	0.04000000000000001	1	f	1	0.5915793837048113
13	59	n/a	n/a	n/a	f	5	0.03000000000000001	1	f	1	0.5637186898384243
13	60	n/a	n/a	n/a	f	5	0.02000000000000001	0	f	1	0.575744720408693
13	61	n/a	n/a	n/a	j	5	0.03000000000000001	1	j	1	0.6046511561144143
13	62	n/a	n/a	n/a	f	5	0.02000000000000001	1	f	1	0.5524450342636555
13	63	n/a	n/a	n/a	f	5	0.01000000000000001	0	f	1	0.5893561847042292
13	64	n/a	n/a	n/a	f	5	0.02000000000000001	1	f	1	0.5485788118094206
13	65	n/a	n/a	n/a	j	5	0.01000000000000001	0	j	1	2.152955417986959
13	66	n/a	n/a	n/a	f	5	0.02000000000000001	2	f	1	0.6431936407461762
13	67	n/a	n/a	n/a	f	5	0.03000000000000001	2	f	1	0.584425973938778
13	68	n/a	n/a	n/a	f	5	0.04000000000000001	1	f	1	0.5563175291754305
13	69	n/a	n/a	n/a	j	5	0.03000000000000001	0	j	1	0.6171022688504308
13	70	n/a	n/a	n/a	f	5	0.04000000000000001	1	f	1	0.5820143246091902
13	71	n/a	n/a	n/a	f	5	0.03000000000000001	1	f	1	0.6060481395106763
14	0	j	1	0.1622567609883845	j	12	0.04000000000000001	0	j	1	0.9432759201154113
14	1	n/a	n/a	n/a	j	12	0.05000000000000002	1	j	1	0.972014432772994
14	2	n/a	n/a	n/a	f	12	0.04000000000000001	1	f	1	0.96839738660492
14	3	n/a	n/a	n/a	j	12	0.03000000000000001	1	j	1	0.9749375490937382
14	4	n/a	n/a	n/a	j	12	0.02000000000000001	1	j	1	0.9683004529215395
14	5	n/a	n/a	n/a	j	12	0.01000000000000001	0	j	1	0.9568585893139243
14	6	n/a	n/a	n/a	j	12	0.02000000000000001	0	j	1	0.9841947020031512
14	7	n/a	n/a	n/a	j	12	0.03000000000000001	1	j	1	0.9570989275816828
14	8	n/a	n/a	n/a	f	12	0.02000000000000001	0	f	1	0.970073766540736
14	9	n/a	n/a	n/a	j	12	0.03000000000000001	1	j	1	1.065017884364352
14	10	n/a	n/a	n/a	j	12	0.02000000000000001	2	j	1	0.9561124863103032
14	11	n/a	n/a	n/a	j	12	0.03000000000000001	1	j	1	0.9674996109679341
14	12	n/a	n/a	n/a	j	12	0.02000000000000001	1	j	1	0.9888144400902092
14	13	n/a	n/a	n/a	j	12	0.01000000000000001	1	j	1	0.9627544290851802
14	14	n/a	n/a	n/a	f	12	1.040834085586084e-17	0	f	1	0.9997474027331918
14	15	n/a	n/a	n/a	j	12	0.01000000000000001	2	j	1	1.043248037574813
14	16	n/a	n/a	n/a	j	12	0.02000000000000001	2	j	1	1.048571399180219
14	17	n/a	n/a	n/a	j	12	0.03000000000000001	2	j	1	1.038963860366493
14	18	n/a	n/a	n/a	j	12	0.04000000000000001	2	j	1	0.9166548349894583
14	19	n/a	n/a	n/a	j	12	0.05000000000000002	0	j	1	0.8973830225877464
14	20	n/a	n/a	n/a	f	12	0.06000000000000002	0	f	1	1.004153887042776
14	21	n/a	n/a	n/a	j	12	0.07000000000000002	1	j	1	0.862952800700441
14	22	n/a	n/a	n/a	j	12	0.06000000000000002	0	j	1	0.9612451170105487
14	23	n/a	n/a	n/a	j	12	0.07000000000000002	1	j	1	0.894217572407797
14	24	n/a	n/a	n/a	j	12	0.06000000000000002	0	j	1	0.9550989605486393
14	25	n/a	n/a	n/a	j	12	0.07000000000000002	1	j	1	0.863254435127601
14	26	n/a	n/a	n/a	f	12	0.06000000000000002	0	f	1	0.9163420819677413
14	27	n/a	n/a	n/a	j	12	0.07000000000000002	0	j	1	0.938947552582249
14	28	n/a	n/a	n/a	j	12	0.08000000000000002	1	j	1	0.8971697688102722
14	29	n/a	n/a	n/a	j	12	0.07000000000000002	0	j	1	0.9178992905654013
14	30	n/a	n/a	n/a	j	12	0.08000000000000002	1	j	1	0.914796847384423
14	31	n/a	n/a	n/a	j	12	0.07000000000000002	0	j	1	0.9130885361228138
14	32	n/a	n/a	n/a	f	12	0.08000000000000002	1	f	1	0.9330043864902109
14	33	n/a	n/a	n/a	j	12	0.07000000000000002	1	j	1	0.9306734201963991
14	34	n/a	n/a	n/a	j	12	0.06000000000000002	1	j	1	0.920585204847157
14	35	n/a	n/a	n/a	j	12	0.05000000000000002	0	j	1	0.9655595144722611
14	36	n/a	n/a	n/a	j	12	0.06000000000000002	1	j	1	0.884661921299994
14	37	n/a	n/a	n/a	j	12	0.05000000000000002	0	j	1	0.9784565216396004
14	38	n/a	n/a	n/a	f	12	0.06000000000000002	1	f	1	1.007409428246319
14	39	n/a	n/a	n/a	j	12	0.05000000000000002	1	j	1	0.8435318819247186
14	40	n/a	n/a	n/a	j	12	0.04000000000000001	0	j	1	0.9195682578720152
14	41	n/a	n/a	n/a	j	12	0.05000000000000002	0	j	1	0.8905494932550937
14	42	n/a	n/a	n/a	j	12	0.06000000000000002	0	j	1	0.9101708368398249
14	43	n/a	n/a	n/a	j	12	0.07000000000000002	0	f	0	0.9321200104895979
14	44	n/a	n/a	n/a	f	12	0.08000000000000002	1	f	1	0.97709317994304
14	45	n/a	n/a	n/a	j	12	0.07000000000000002	1	j	1	0.9180526735726744
14	46	n/a	n/a	n/a	j	12	0.06000000000000002	0	j	1	0.8909623161889613
14	47	n/a	n/a	n/a	j	12	0.07000000000000002	0	j	1	0.8952442125882953
14	48	n/a	n/a	n/a	j	12	0.08000000000000002	0	j	1	0.8520569012034684
14	49	n/a	n/a	n/a	j	12	0.09000000000000001	0	j	1	0.9649054983165115
14	50	n/a	n/a	n/a	f	12	0.1	1	f	1	0.9888791576959193
14	51	n/a	n/a	n/a	j	12	0.09000000000000001	1	j	1	0.8986956167500466
14	52	n/a	n/a	n/a	j	12	0.08000000000000002	0	j	1	0.943700147094205
14	53	n/a	n/a	n/a	j	12	0.09000000000000001	1	j	1	0.9248166386969388
14	54	n/a	n/a	n/a	j	12	0.08000000000000002	1	j	1	0.9135586638003588
14	55	n/a	n/a	n/a	j	12	0.07000000000000002	0	j	1	0.9668741044588387
14	56	n/a	n/a	n/a	f	12	0.08000000000000002	1	f	1	0.9886468022596091
14	57	n/a	n/a	n/a	j	12	0.07000000000000002	1	j	1	0.9366670486051589
14	58	n/a	n/a	n/a	j	12	0.06000000000000002	1	j	1	0.9343010149896145
14	59	n/a	n/a	n/a	j	12	0.05000000000000002	0	j	1	0.95328772906214
14	60	n/a	n/a	n/a	j	12	0.06000000000000002	1	j	1	0.9620448185596615
14	61	n/a	n/a	n/a	j	12	0.05000000000000002	1	j	1	0.9656943662557751
14	62	n/a	n/a	n/a	f	12	0.04000000000000001	1	f	1	1.017366213258356
14	63	n/a	n/a	n/a	j	12	0.03000000000000001	2	j	1	0.9980054500047117
14	64	n/a	n/a	n/a	j	12	0.04000000000000001	1	j	1	0.9306320806499571
14	65	n/a	n/a	n/a	j	12	0.03000000000000001	0	j	1	0.9039608181919903
14	66	n/a	n/a	n/a	j	12	0.04000000000000001	0	j	1	0.9569033498410136
14	67	n/a	n/a	n/a	j	12	0.05000000000000002	1	j	1	0.8978311978280544
14	68	n/a	n/a	n/a	f	12	0.04000000000000001	0	f	1	0.9514063629321754
14	69	n/a	n/a	n/a	j	12	0.05000000000000002	1	j	1	1.020899725612253
14	70	n/a	n/a	n/a	j	12	0.04000000000000001	1	j	1	0.9302377894055098
14	71	n/a	n/a	n/a	j	12	0.03000000000000001	0	j	1	1.007596453186125
15	0	f	1	0.6523578511551023	f	7	0.02000000000000001	2	f	1	0.6196328043006361
15	1	n/a	n/a	n/a	f	7	0.03000000000000001	2	f	1	0.621223084628582
15	2	n/a	n/a	n/a	j	7	0.04000000000000001	1	j	1	0.6526438051369041
15	3	n/a	n/a	n/a	f	7	0.03000000000000001	2	f	1	0.5684407784137875
15	4	n/a	n/a	n/a	f	7	0.04000000000000001	1	f	1	0.5961398214567453
15	5	n/a	n/a	n/a	f	7	0.03000000000000001	1	f	1	0.5284314614254981
15	6	n/a	n/a	n/a	f	7	0.02000000000000001	0	f	1	0.5583867751993239
15	7	n/a	n/a	n/a	f	7	0.03000000000000001	1	f	1	0.554326685378328
15	8	n/a	n/a	n/a	j	7	0.02000000000000001	0	j	1	0.6073564570397139
15	9	n/a	n/a	n/a	f	7	0.03000000000000001	1	f	1	0.5164604550227523
15	10	n/a	n/a	n/a	f	7	0.02000000000000001	0	f	1	0.5808337309863418
15	11	n/a	n/a	n/a	f	7	0.03000000000000001	1	f	1	0.5359438103623688
15	12	n/a	n/a	n/a	f	7	0.02000000000000001	0	f	1	0.5151518520433456
15	13	n/a	n/a	n/a	f	7	0.03000000000000001	0	f	1	0.5848772851750255
15	14	n/a	n/a	n/a	j	7	0.04000000000000001	1	j	1	0.5341197494417429
15	15	n/a	n/a	n/a	f	7	0.03000000000000001	0	f	1	0.513807896990329
15	16	n/a	n/a	n/a	f	7	0.04000000000000001	0	f	1	0.5913065441418439
15	17	n/a	n/a	n/a	f	7	0.05000000000000002	1	f	1	0.574017307953909
15	18	n/a	n/a	n/a	f	7	0.04000000000000001	1	f	1	0.5611915753688663
15	19	n/a	n/a	n/a	f	7	0.03000000000000001	1	f	1	0.5592531897127628
15	20	n/a	n/a	n/a	j	7	0.02000000000000001	0	j	1	0.5968973287381232
15	21	n/a	n/a	n/a	f	7	0.03000000000000001	1	f	1	0.55550670879893
15	22	n/a	n/a	n/a	f	7	0.02000000000000001	0	f	1	0.5284622521139681
15	23	n/a	n/a	n/a	f	7	0.03000000000000001	0	f	1	0.5347883058711886
15	24	n/a	n/a	n/a	f	7	0.04000000000000001	0	f	1	0.5559534581843764
15	25	n/a	n/a	n/a	f	7	0.05000000000000002	1	f	1	0.5527007679920644
15	26	n/a	n/a	n/a	j	7	0.04000000000000001	1	j	1	0.5897308040875942
15	27	n/a	n/a	n/a	f	7	0.03000000000000001	1	f	1	0.548876169603318
15	28	n/a	n/a	n/a	f	7	0.02000000000000001	0	f	1	0.5536755200009793
15	29	n/a	n/a	n/a	f	7	0.03000000000000001	0	f	1	0.5736512411385775
15	30	n/a	n/a	n/a	f	7	0.04000000000000001	1	f	1	0.4916337805334479
15	31	n/a	n/a	n/a	f	7	0.03000000000000001	0	f	1	0.6092304105404764
15	32	n/a	n/a	n/a	j	7	0.04000000000000001	1	j	1	0.5556267353240401
15	33	n/a	n/a	n/a	f	7	0.03000000000000001	0	f	1	0.553476236294955
15	34	n/a	n/a	n/a	f	7	0.04000000000000001	1	f	1	0.5654731867834926
15	35	n/a	n/a	n/a	f	7	0.03000000000000001	1	f	1	0.6116329366341233
15	36	n/a	n/a	n/a	f	7	0.02000000000000001	2	f	1	0.4883668352849782
15	37	n/a	n/a	n/a	f	7	0.03000000000000001	0	f	1	0.6026058585848659
15	38	n/a	n/a	n/a	j	7	0.04000000000000001	1	j	1	1.118575658649206
15	39	n/a	n/a	n/a	f	7	0.03000000000000001	2	f	1	0.5474093372467905
15	40	n/a	n/a	n/a	f	7	0.04000000000000001	1	f	1	0.5587066556327045
15	41	n/a	n/a	n/a	f	7	0.03000000000000001	1	f	1	0.5611257175914943
15	42	n/a	n/a	n/a	f	7	0.02000000000000001	0	f	1	0.4942179147619754
15	43	n/a	n/a	n/a	f	7	0.03000000000000001	0	f	1	0.5625343900173903
15	44	n/a	n/a	n/a	j	7	0.04000000000000001	1	j	1	0.5261195967905223
15	45	n/a	n/a	n/a	f	7	0.03000000000000001	0	f	1	0.5533755964133888
15	46	n/a	n/a	n/a	f	7	0.04000000000000001	1	f	1	0.5493400250561535
15	47	n/a	n/a	n/a	f	7	0.03000000000000001	0	f	1	0.555474492488429
15	48	n/a	n/a	n/a	f	7	0.04000000000000001	1	f	1	0.5196107949595898
15	49	n/a	n/a	n/a	f	7	0.03000000000000001	0	f	1	0.544901609653607
15	50	n/a	n/a	n/a	j	7	0.04000000000000001	0	j	1	0.5119079996366054
15	51	n/a	n/a	n/a	f	7	0.05000000000000002	0	f	1	0.5080463388003409
15	52	n/a	n/a	n/a	f	7	0.06000000000000002	0	f	1	0.5791835801210254
15	53	n/a	n/a	n/a	f	7	0.07000000000000002	1	f	1	0.5036005105357617
15	54	n/a	n/a	n/a	f	7	0.06000000000000002	0	f	1	0.5079573881812394
15	55	n/a	n/a	n/a	f	7	0.07000000000000002	0	f	1	0.5377758543472737
15	56	n/a	n/a	n/a	j	7	0.08000000000000002	1	j	1	0.5499991732649505
15	57	n/a	n/a	n/a	f	7	0.07000000000000002	1	f	1	0.4896857016719878
15	58	n/a	n/a	n/a	f	7	0.06000000000000002	0	f	1	0.5836445183958858
15	59	n/a	n/a	n/a	f	7	0.07000000000000002	1	f	1	0.5095328432507813
15	60	n/a	n/a	n/a	f	7	0.06000000000000002	0	f	1	0.5475957915186882
15	61	n/a	n/a	n/a	f	7	0.07000000000000002	1	f	1	0.5295789833180606
15	62	n/a	n/a	n/a	j	7	0.06000000000000002	1	j	1	0.5252061407081783
15	63	n/a	n/a	n/a	f	7	0.05000000000000002	0	f	1	0.5115000235382468
15	64	n/a	n/a	n/a	f	7	0.06000000000000002	0	f	1	0.5312097477726638
15	65	n/a	n/a	n/a	f	7	0.07000000000000002	1	f	1	0.5534534282051027
15	66	n/a	n/a	n/a	f	7	0.06000000000000002	1	f	1	0.5370385891292244
15	67	n/a	n/a	n/a	f	7	0.05000000000000002	1	f	1	0.5013975535985082
15	68	n/a	n/a	n/a	j	7	0.04000000000000001	0	j	1	1.056882024509832
15	69	n/a	n/a	n/a	f	7	0.05000000000000002	2	f	1	0.5643775525968522
15	70	n/a	n/a	n/a	f	7	0.06000000000000002	1	f	1	0.5129044195637107
15	71	n/a	n/a	n/a	f	7	0.05000000000000002	0	f	1	0.5154112917371094
16	0	j	1	0.734219933161512	j	2	0.02000000000000001	2	j	1	0.3770055978093296
16	1	n/a	n/a	n/a	f	2	0.03000000000000001	1	f	1	0.387613832950592
16	2	n/a	n/a	n/a	j	2	0.02000000000000001	1	j	1	0.4066635535564274
16	3	n/a	n/a	n/a	j	2	0.01000000000000001	2	j	1	0.4103416108991951
16	4	n/a	n/a	n/a	j	2	0.02000000000000001	2	j	1	0.382738075684756
16	5	n/a	n/a	n/a	f	2	0.03000000000000001	1	f	1	0.4195078171323985
16	6	n/a	n/a	n/a	j	2	0.02000000000000001	2	j	1	0.3744177573826164
16	7	n/a	n/a	n/a	j	2	0.03000000000000001	1	j	1	0.3794748368673027
16	8	n/a	n/a	n/a	j	2	0.02000000000000001	1	f	0	0.3832332922611386
16	9	n/a	n/a	n/a	f	2	0.01000000000000001	1	j	0	0.3864035890437663
16	10	n/a	n/a	n/a	j	2	1.040834085586084e-17	2	j	1	0.4061928554438055
16	11	n/a	n/a	n/a	j	2	0.01000000000000001	2	j	1	0.4093982195481658
16	12	n/a	n/a	n/a	j	2	0.02000000000000001	2	j	1	0.3571624474134296
16	13	n/a	n/a	n/a	f	2	0.03000000000000001	1	f	1	0.4251524850260466
16	14	n/a	n/a	n/a	j	2	0.02000000000000001	2	j	1	0.3751279378775507
16	15	n/a	n/a	n/a	j	2	0.03000000000000001	1	j	1	0.3871191865764558
16	16	n/a	n/a	n/a	j	2	0.02000000000000001	1	j	1	0.3380998973734677
16	17	n/a	n/a	n/a	f	2	0.01000000000000001	0	f	1	0.3510983993764967
16	18	n/a	n/a	n/a	j	2	0.02000000000000001	0	j	1	0.3722262042574584
16	19	n/a	n/a	n/a	j	2	0.03000000000000001	1	j	1	0.4029792237561196
16	20	n/a	n/a	n/a	j	2	0.02000000000000001	1	j	1	0.3375701841432601
16	21	n/a	n/a	n/a	f	2	0.01000000000000001	0	f	1	0.3657781283836812
16	22	n/a	n/a	n/a	j	2	0.02000000000000001	1	j	1	0.3554740932304412
16	23	n/a	n/a	n/a	j	2	0.01000000000000001	0	j	1	0.3756314222700894
16	24	n/a	n/a	n/a	j	2	0.02000000000000001	1	j	1	0.3578387014567852
16	25	n/a	n/a	n/a	f	2	0.01000000000000001	0	f	1	0.3648700891062617
16	26	n/a	n/a	n/a	j	2	0.02000000000000001	1	j	1	0.3716702617239207
16	27	n/a	n/a	n/a	j	2	0.01000000000000001	0	j	1	0.3688184202183038
16	28	n/a	n/a	n/a	j	2	0.02000000000000001	1	j	1	0.3331753886304796
16	29	n/a	n/a	n/a	f	2	0.01000000000000001	0	f	1	0.3687728042714298
16	30	n/a	n/a	n/a	j	2	0.02000000000000001	1	j	1	0.3751630051992834
16	31	n/a	n/a	n/a	j	2	0.01000000000000001	1	j	1	0.3888996276073158
16	32	n/a	n/a	n/a	j	2	1.040834085586084e-17	1	f	0	0.3626896548084915
16	33	n/a	n/a	n/a	f	2	0.01000000000000001	1	j	0	0.3817214141599834
16	34	n/a	n/a	n/a	j	2	0.02000000000000001	1	j	1	0.4037010935135186
16	35	n/a	n/a	n/a	j	2	0.01000000000000001	2	j	1	0.3766472286079079
16	36	n/a	n/a	n/a	j	2	0.02000000000000001	1	j	1	0.3666411219164729
16	37	n/a	n/a	n/a	f	2	0.01000000000000001	0	f	1	0.3967692053411156
16	38	n/a	n/a	n/a	j	2	0.02000000000000001	1	j	1	0.3775464298669249
16	39	n/a	n/a	n/a	j	2	0.01000000000000001	1	j	1	0.408580556511879
16	40	n/a	n/a	n/a	j	2	1.040834085586084e-17	2	j	1	0.3568625238258392
16	41	n/a	n/a	n/a	f	2	0.01000000000000001	0	f	1	0.4088568172883242
16	42	n/a	n/a	n/a	j	2	0.02000000000000001	2	j	1	0.3733651731163263
16	43	n/a	n/a	n/a	j	2	0.03000000000000001	1	j	1	0.4024817266035825
16	44	n/a	n/a	n/a	j	2	0.02000000000000001	1	j	1	0.342999032465741
16	45	n/a	n/a	n/a	f	2	0.01000000000000001	0	f	1	0.3221663050353527
16	46	n/a	n/a	n/a	j	2	0.02000000000000001	0	j	1	0.4150525806471705
16	47	n/a	n/a	n/a	j	2	0.03000000000000001	2	j	1	0.396489808568731
16	48	n/a	n/a	n/a	j	2	0.04000000000000001	1	j	1	0.3853153677191585
16	49	n/a	n/a	n/a	f	2	0.03000000000000001	2	f	1	0.3392847673967481
16	50	n/a	n/a	n/a	j	2	0.04000000000000001	0	j	1	0.3682892769575119
16	51	n/a	n/a	n/a	j	2	0.05000000000000002	1	j	1	0.8782329473178834
16	52	n/a	n/a	n/a	j	2	0.04000000000000001	2	j	1	0.3634006907232106
16	53	n/a	n/a	n/a	f	2	0.05000000000000002	1	f	1	0.353176768636331
16	54	n/a	n/a	n/a	j	2	0.04000000000000001	1	j	1	0.3814713826868683
16	55	n/a	n/a	n/a	j	2	0.03000000000000001	1	j	1	0.3911724339704961
16	56	n/a	n/a	n/a	j	2	0.02000000000000001	1	j	1	0.3243609943892807
16	57	n/a	n/a	n/a	f	2	0.01000000000000001	0	f	1	0.3785137692466378
16	58	n/a	n/a	n/a	j	2	0.02000000000000001	1	j	1	0.3510513582732528
16	59	n/a	n/a	n/a	j	2	0.01000000000000001	0	j	1	0.4259758498519659
16	60	n/a	n/a	n/a	j	2	0.02000000000000001	2	j	1	0.3350821284111589
16	61	n/a	n/a	n/a	f	2	0.03000000000000001	0	f	1	0.3872309452854097
16	62	n/a	n/a	n/a	j	2	0.04000000000000001	1	j	1	0.4026527858804911
16	63	n/a	n/a	n/a	j	2	0.03000000000000001	1	j	1	0.4009960775729269
16	64	n/a	n/a	n/a	j	2	0.02000000000000001	1	j	1	0.3339802219998091
16	65	n/a	n/a	n/a	f	2	0.01000000000000001	0	f	1	0.3789052099455148
16	66	n/a	n/a	n/a	j	2	0.02000000000000001	1	j	1	0.3606132813729346
16	67	n/a	n/a	n/a	j	2	0.01000000000000001	0	j	1	0.4058761110063642
16	68	n/a	n/a	n/a	j	2	0.02000000000000001	2	j	1	0.348139930749312
16	69	n/a	n/a	n/a	f	2	0.03000000000000001	0	f	1	0.3541301384102553
16	70	n/a	n/a	n/a	j	2	0.04000000000000001	1	j	1	0.3101069175172597
16	71	n/a	n/a	n/a	j	2	0.03000000000000001	0	j	1	0.3956832645926625
17	0	j	1	1.191030625952408	j	10	0.02000000000000001	0	j	1	0.9185245120897889
17	1	n/a	n/a	n/a	f	10	0.03000000000000001	0	f	1	0.9873841004446149
17	2	n/a	n/a	n/a	j	10	0.04000000000000001	1	j	1	0.9388540403451771
17	3	n/a	n/a	n/a	j	10	0.03000000000000001	0	j	1	0.9211793504655361
17	4	n/a	n/a	n/a	j	10	0.04000000000000001	0	j	1	0.9337236904539168
17	5	n/a	n/a	n/a	f	10	0.05000000000000002	1	f	1	0.9699608674272895
17	6	n/a	n/a	n/a	j	10	0.04000000000000001	1	j	1	0.9849071633070707
17	7	n/a	n/a	n/a	j	10	0.03000000000000001	1	j	1	0.9720908391755074
17	8	n/a	n/a	n/a	j	10	0.02000000000000001	1	j	1	0.9848099446389824
17	9	n/a	n/a	n/a	f	10	0.01000000000000001	1	f	1	0.9409785952884704
17	10	n/a	n/a	n/a	j	10	1.040834085586084e-17	0	j	1	0.9302645886782557
17	11	n/a	n/a	n/a	j	10	0.01000000000000001	0	j	1	0.9506625407375395
17	12	n/a	n/a	n/a	j	10	0.02000000000000001	0	j	1	0.971774379722774
17	13	n/a	n/a	n/a	f	10	0.03000000000000001	1	f	1	1.007721041329205
17	14	n/a	n/a	n/a	j	10	0.02000000000000001	2	j	1	0.9966626353561878
17	15	n/a	n/a	n/a	j	10	0.03000000000000001	1	j	1	0.9614013510290533
17	16	n/a	n/a	n/a	j	10	0.02000000000000001	1	j	1	0.9325559264980257
17	17	n/a	n/a	n/a	f	10	0.01000000000000001	0	f	1	1.022941031958908
17	18	n/a	n/a	n/a	j	10	0.02000000000000001	2	j	1	0.9222484703641385
17	19	n/a	n/a	n/a	j	10	0.03000000000000001	0	j	1	0.9345270984340459
17	20	n/a	n/a	n/a	j	10	0.04000000000000001	0	j	1	0.9307777662761509
17	21	n/a	n/a	n/a	f	10	0.05000000000000002	0	f	1	0.9261280924547464
17	22	n/a	n/a	n/a	j	10	0.06000000000000002	0	j	1	0.8990616835653782
17	23	n/a	n/a	n/a	j	10	0.07000000000000002	0	j	1	0.9440180319361389
17	24	n/a	n/a	n/a	j	10	0.08000000000000002	1	j	1	0.8193520961795002
17	25	n/a	n/a	n/a	f	10	0.07000000000000002	0	f	1	0.927861207164824
17	26	n/a	n/a	n/a	j	10	0.08000000000000002	1	j	1	0.9178009314928204
17	27	n/a	n/a	n/a	j	10	0.07000000000000002	1	j	1	0.8577417680062354
17	28	n/a	n/a	n/a	j	10	0.06000000000000002	0	j	1	0.9353478974662721
17	29	n/a	n/a	n/a	f	10	0.07000000000000002	1	f	1	0.9146540127694607
17	30	n/a	n/a	n/a	j	10	0.06000000000000002	0	j	1	1.00060925562866
17	31	n/a	n/a	n/a	j	10	0.07000000000000002	1	j	1	0.9317516630981117
17	32	n/a	n/a	n/a	j	10	0.06000000000000002	1	j	1	0.8884779666550457
17	33	n/a	n/a	n/a	f	10	0.05000000000000002	0	f	1	0.94906513299793
17	34	n/a	n/a	n/a	j	10	0.06000000000000002	1	j	1	0.9383536921814084
17	35	n/a	n/a	n/a	j	10	0.05000000000000002	1	j	1	0.9753161601256579
17	36	n/a	n/a	n/a	j	10	0.04000000000000001	1	j	1	0.9622791698202491
17	37	n/a	n/a	n/a	f	10	0.03000000000000001	1	f	1	0.9728654522914439
17	38	n/a	n/a	n/a	j	10	0.02000000000000001	1	j	1	0.8961374268401414
17	39	n/a	n/a	n/a	j	10	0.01000000000000001	0	j	1	0.9651227435097098
17	40	n/a	n/a	n/a	j	10	0.02000000000000001	1	j	1	0.9081631721928716
17	41	n/a	n/a	n/a	f	10	0.01000000000000001	0	f	1	0.922003855695948
17	42	n/a	n/a	n/a	j	10	0.02000000000000001	0	j	1	0.9749024820048362
17	43	n/a	n/a	n/a	j	10	0.03000000000000001	1	j	1	0.9143925772514194
17	44	n/a	n/a	n/a	j	10	0.02000000000000001	0	j	1	0.8624473207164556
17	45	n/a	n/a	n/a	f	10	0.03000000000000001	0	f	1	1.027472959831357
17	46	n/a	n/a	n/a	j	10	0.04000000000000001	2	j	1	0.9036976723000407
17	47	n/a	n/a	n/a	j	10	0.05000000000000002	0	j	1	0.8856848555151373
17	48	n/a	n/a	n/a	j	10	0.06000000000000002	0	j	1	0.860774647211656
17	49	n/a	n/a	n/a	f	10	0.07000000000000002	0	f	1	0.9048600194510072
17	50	n/a	n/a	n/a	j	10	0.08000000000000002	1	j	1	0.9331383828539401
17	51	n/a	n/a	n/a	j	10	0.07000000000000002	1	j	1	0.9554650273639709
17	52	n/a	n/a	n/a	j	10	0.06000000000000002	1	j	1	0.920391907915473
17	53	n/a	n/a	n/a	f	10	0.05000000000000002	0	f	1	1.045011372538283
17	54	n/a	n/a	n/a	j	10	0.06000000000000002	1	j	1	0.9529091180302203
17	55	n/a	n/a	n/a	j	10	0.05000000000000002	1	j	1	0.9005059930495918
17	56	n/a	n/a	n/a	j	10	0.04000000000000001	0	j	1	0.9525122607592493
17	57	n/a	n/a	n/a	f	10	0.05000000000000002	1	f	1	0.9568614403251559
17	58	n/a	n/a	n/a	j	10	0.04000000000000001	1	j	1	0.9621186591684818
17	59	n/a	n/a	n/a	j	10	0.03000000000000001	1	j	1	0.9196825826074928
17	60	n/a	n/a	n/a	j	10	0.02000000000000001	0	j	1	0.9561455575749278
17	61	n/a	n/a	n/a	f	10	0.03000000000000001	1	f	1	0.9119450056459755
17	62	n/a	n/a	n/a	j	10	0.02000000000000001	0	j	1	0.982892086263746
17	63	n/a	n/a	n/a	j	10	0.03000000000000001	1	j	1	0.9080003809649497
17	64	n/a	n/a	n/a	j	10	0.02000000000000001	0	j	1	0.8987534916959703
17	65	n/a	n/a	n/a	f	10	0.03000000000000001	0	f	1	0.9446945709642023
17	66	n/a	n/a	n/a	j	10	0.04000000000000001	1	j	1	0.981717764865607
17	67	n/a	n/a	n/a	j	10	0.03000000000000001	1	j	1	0.9377937584649771
17	68	n/a	n/a	n/a	j	10	0.02000000000000001	0	j	1	0.9413560661487281
17	69	n/a	n/a	n/a	f	10	0.03000000000000001	0	f	1	0.9646395011804998
17	70	n/a	n/a	n/a	j	10	0.04000000000000001	1	j	1	0.896340416977182
17	71	n/a	n/a	n/a	j	10	0.03000000000000001	0	j	1	0.9593457898590714
18	0	j	1	0.9580622757785022	j	6	0.04000000000000001	2	j	1	0.5673328849952668
18	1	n/a	n/a	n/a	f	6	0.05000000000000002	1	f	1	0.594262732192874
18	2	n/a	n/a	n/a	j	6	0.04000000000000001	1	j	1	0.5747919206041843
18	3	n/a	n/a	n/a	j	6	0.03000000000000001	1	j	1	0.6113874667789787
18	4	n/a	n/a	n/a	j	6	0.02000000000000001	2	j	1	0.5753931938670576
18	5	n/a	n/a	n/a	f	6	0.03000000000000001	1	f	1	0.6181577038951218
18	6	n/a	n/a	n/a	j	6	0.02000000000000001	2	j	1	0.583721780218184
18	7	n/a	n/a	n/a	j	6	0.03000000000000001	1	j	1	0.635186075232923
18	8	n/a	n/a	n/a	j	6	0.02000000000000001	2	j	1	0.5457737264223397
18	9	n/a	n/a	n/a	f	6	0.03000000000000001	0	f	1	0.592223136452958
18	10	n/a	n/a	n/a	j	6	0.04000000000000001	1	j	1	0.5949552366510034
18	11	n/a	n/a	n/a	j	6	0.03000000000000001	1	j	1	0.575947995763272
18	12	n/a	n/a	n/a	j	6	0.02000000000000001	1	j	1	0.6148876226507127
18	13	n/a	n/a	n/a	f	6	0.01000000000000001	2	f	1	0.621813238831237
18	14	n/a	n/a	n/a	j	6	0.02000000000000001	2	j	1	0.5730129051953554
18	15	n/a	n/a	n/a	j	6	0.03000000000000001	1	j	1	0.5959875788539648
18	16	n/a	n/a	n/a	j	6	0.02000000000000001	1	j	1	0.5063953325152397
18	17	n/a	n/a	n/a	f	6	0.01000000000000001	0	f	1	0.6307086013257504
18	18	n/a	n/a	n/a	j	6	0.02000000000000001	2	j	1	0.6095936261117458
18	19	n/a	n/a	n/a	j	6	0.03000000000000001	1	j	1	0.5652368399314582
18	20	n/a	n/a	n/a	j	6	0.02000000000000001	0	j	1	0.5617574963252991
18	21	n/a	n/a	n/a	f	6	0.03000000000000001	1	f	1	0.5985836868640035
18	22	n/a	n/a	n/a	j	6	0.02000000000000001	1	j	1	0.6357143630739301
18	23	n/a	n/a	n/a	j	6	0.01000000000000001	2	j	1	0.5764996614307165
18	24	n/a	n/a	n/a	j	6	0.02000000000000001	1	j	1	0.5574439540505409
18	25	n/a	n/a	n/a	f	6	0.01000000000000001	0	f	1	0.5694069778546691
18	26	n/a	n/a	n/a	j	6	0.02000000000000001	1	j	1	0.5726873227395117
18	27	n/a	n/a	n/a	j	6	0.01000000000000001	0	j	1	0.5515831813681871
18	28	n/a	n/a	n/a	j	6	0.02000000000000001	0	j	1	0.5620976188220084
18	29	n/a	n/a	n/a	f	6	0.03000000000000001	1	f	1	0.5573045406490564
18	30	n/a	n/a	n/a	j	6	0.02000000000000001	0	j	1	0.6182563481852412
18	31	n/a	n/a	n/a	j	6	0.03000000000000001	2	j	1	0.574142751051113
18	32	n/a	n/a	n/a	j	6	0.04000000000000001	1	j	1	0.5227990527637303
18	33	n/a	n/a	n/a	f	6	0.03000000000000001	0	f	1	0.577130869962275
18	34	n/a	n/a	n/a	j	6	0.04000000000000001	1	j	1	0.54012620751746
18	35	n/a	n/a	n/a	j	6	0.03000000000000001	0	j	1	0.6090918525587767
18	36	n/a	n/a	n/a	j	6	0.04000000000000001	1	j	1	0.5663518607616425
18	37	n/a	n/a	n/a	f	6	0.03000000000000001	1	f	1	0.5481922179460526
18	38	n/a	n/a	n/a	j	6	0.02000000000000001	0	j	1	0.5939750676043332
18	39	n/a	n/a	n/a	j	6	0.03000000000000001	1	j	1	0.590993506135419
18	40	n/a	n/a	n/a	j	6	0.02000000000000001	1	j	1	0.4909198936074972
18	41	n/a	n/a	n/a	f	6	0.01000000000000001	0	f	1	0.6241504773497581
18	42	n/a	n/a	n/a	j	6	0.02000000000000001	2	j	1	0.5730933032464236
18	43	n/a	n/a	n/a	j	6	0.03000000000000001	1	j	1	0.5388090517371893
18	44	n/a	n/a	n/a	j	6	0.02000000000000001	0	j	1	0.568769782083109
18	45	n/a	n/a	n/a	f	6	0.03000000000000001	1	f	1	0.589826597366482
18	46	n/a	n/a	n/a	j	6	0.02000000000000001	1	j	1	0.5627091554924846
18	47	n/a	n/a	n/a	j	6	0.01000000000000001	0	j	1	0.6073450529947877
18	48	n/a	n/a	n/a	j	6	0.02000000000000001	2	j	1	0.5478193089365959
18	49	n/a	n/a	n/a	f	6	0.03000000000000001	0	f	1	0.5286529830191284
18	50	n/a	n/a	n/a	j	6	0.04000000000000001	0	j	1	0.5911907942499965
18	51	n/a	n/a	n/a	j	6	0.05000000000000002	1	j	1	0.6265672584995627
18	52	n/a	n/a	n/a	j	6	0.04000000000000001	2	j	1	0.6145024544093758
18	53	n/a	n/a	n/a	f	6	0.05000000000000002	1	f	1	0.5471493273507804
18	54	n/a	n/a	n/a	j	6	0.04000000000000001	1	j	1	0.5823915100190789
18	55	n/a	n/a	n/a	j	6	0.03000000000000001	1	j	1	0.6115747764706612
18	56	n/a	n/a	n/a	j	6	0.02000000000000001	2	j	1	0.6319607545156032
18	57	n/a	n/a	n/a	f	6	0.03000000000000001	2	f	1	0.5463105670642108
18	58	n/a	n/a	n/a	j	6	0.04000000000000001	1	j	1	0.5673237619921565
18	59	n/a	n/a	n/a	j	6	0.03000000000000001	1	j	1	0.5476984272245318
18	60	n/a	n/a	n/a	j	6	0.02000000000000001	0	j	1	0.5425558181013912
18	61	n/a	n/a	n/a	f	6	0.03000000000000001	0	f	1	0.5633754308801144
18	62	n/a	n/a	n/a	j	6	0.04000000000000001	1	j	1	0.544178314274177
18	63	n/a	n/a	n/a	j	6	0.03000000000000001	0	j	1	0.5645514628849924
18	64	n/a	n/a	n/a	j	6	0.04000000000000001	1	j	1	0.5909592942334712
18	65	n/a	n/a	n/a	f	6	0.03000000000000001	1	f	1	0.5562485354021192
18	66	n/a	n/a	n/a	j	6	0.02000000000000001	0	j	1	0.5800636794883758
18	67	n/a	n/a	n/a	j	6	0.03000000000000001	1	j	1	0.5606621471233666
18	68	n/a	n/a	n/a	j	6	0.02000000000000001	0	j	1	0.5175386979244649
18	69	n/a	n/a	n/a	f	6	0.03000000000000001	0	f	1	0.5779331375379115
18	70	n/a	n/a	n/a	j	6	0.04000000000000001	1	j	1	0.5739004174247384
18	71	n/a	n/a	n/a	j	6	0.03000000000000001	1	j	1	0.5480796040501446
19	0	f	1	0.761902155354619	f	3	0.04000000000000001	2	f	1	0.4161647504661232
19	1	n/a	n/a	n/a	f	3	0.05000000000000002	1	f	1	0.3870795578695834
19	2	n/a	n/a	n/a	j	3	0.04000000000000001	1	j	1	0.3840600783005357
19	3	n/a	n/a	n/a	f	3	0.03000000000000001	1	f	1	0.3811517870053649
19	4	n/a	n/a	n/a	f	3	0.02000000000000001	1	f	1	0.4360241512767971
19	5	n/a	n/a	n/a	f	3	0.01000000000000001	2	f	1	0.3690407969988883
19	6	n/a	n/a	n/a	f	3	0.02000000000000001	1	f	1	0.4534761791583151
19	7	n/a	n/a	n/a	f	3	0.01000000000000001	2	f	1	0.3699545382987708
19	8	n/a	n/a	n/a	j	3	0.02000000000000001	1	j	1	0.3659192521590739
19	9	n/a	n/a	n/a	f	3	0.01000000000000001	0	f	1	0.430940272519365
19	10	n/a	n/a	n/a	f	3	0.02000000000000001	2	f	1	0.4039938896894455
19	11	n/a	n/a	n/a	f	3	0.03000000000000001	1	f	1	0.4001327990554273
19	12	n/a	n/a	n/a	f	3	0.02000000000000001	1	f	1	0.4410028287675232
19	13	n/a	n/a	n/a	f	3	0.01000000000000001	2	f	1	0.3994251841213554
19	14	n/a	n/a	n/a	j	3	0.02000000000000001	1	j	1	0.3889689065981656
19	15	n/a	n/a	n/a	f	3	0.01000000000000001	1	f	1	0.4017835198901594
19	16	n/a	n/a	n/a	f	3	1.040834085586084e-17	2	f	1	0.4536922839470208
19	17	n/a	n/a	n/a	f	3	0.01000000000000001	2	f	1	0.3779683755710721
19	18	n/a	n/a	n/a	f	3	0.02000000000000001	1	f	1	0.3907168463338166
19	19	n/a	n/a	n/a	f	3	0.01000000000000001	1	f	1	0.4437794042751193
19	20	n/a	n/a	n/a	j	3	1.040834085586084e-17	2	j	1	0.367872177856043
19	21	n/a	n/a	n/a	f	3	0.01000000000000001	0	f	1	0.374684039503336
19	22	n/a	n/a	n/a	f	3	0.02000000000000001	1	f	1	0.4368050363846123
19	23	n/a	n/a	n/a	f	3	0.01000000000000001	2	f	1	0.3695323071442544
19	24	n/a	n/a	n/a	f	3	0.02000000000000001	1	f	1	0.4218601661268622
19	25	n/a	n/a	n/a	f	3	0.01000000000000001	2	f	1	0.4032671733293682
19	26	n/a	n/a	n/a	j	3	0.02000000000000001	1	j	1	0.3924599394667894
19	27	n/a	n/a	n/a	f	3	0.01000000000000001	1	f	1	0.4134873892180622
19	28	n/a	n/a	n/a	f	3	1.040834085586084e-17	2	f	1	0.4094951529987156
19	29	n/a	n/a	n/a	f	3	0.01000000000000001	2	f	1	0.366456092800945
19	30	n/a	n/a	n/a	f	3	0.02000000000000001	1	f	1	0.4115991811268032
19	31	n/a	n/a	n/a	f	3	0.01000000000000001	2	f	1	0.407000825041905
19	32	n/a	n/a	n/a	j	3	0.02000000000000001	2	j	1	0.3686037408187985
19	33	n/a	n/a	n/a	f	3	0.03000000000000001	1	f	1	0.3644954694900662
19	34	n/a	n/a	n/a	f	3	0.02000000000000001	0	f	1	0.3766959805507213
19	35	n/a	n/a	n/a	f	3	0.03000000000000001	1	f	1	0.4132695738226175
19	36	n/a	n/a	n/a	f	3	0.02000000000000001	2	f	1	0.4088958757929504
19	37	n/a	n/a	n/a	f	3	0.03000000000000001	1	f	1	0.3469998214859515
19	38	n/a	n/a	n/a	j	3	0.02000000000000001	0	j	1	0.406875096494332
19	39	n/a	n/a	n/a	f	3	0.03000000000000001	1	f	1	0.3445188931655139
19	40	n/a	n/a	n/a	f	3	0.02000000000000001	0	f	1	0.4131897464394569
19	41	n/a	n/a	n/a	f	3	0.03000000000000001	1	f	1	0.3448769771493971
19	42	n/a	n/a	n/a	f	3	0.02000000000000001	0	f	1	0.3790956556331366
19	43	n/a	n/a	n/a	f	3	0.03000000000000001	1	f	1	0.3355169037822634
19	44	n/a	n/a	n/a	j	3	0.02000000000000001	0	j	1	0.3642109408974648
19	45	n/a	n/a	n/a	f	3	0.03000000000000001	1	f	1	0.3846972736064345
19	46	n/a	n/a	n/a	f	3	0.02000000000000001	1	f	1	0.3750965769868344
19	47	n/a	n/a	n/a	f	3	0.01000000000000001	1	f	1	0.3721965537406504
19	48	n/a	n/a	n/a	f	3	1.040834085586084e-17	0	f	1	0.3859112237114459
19	49	n/a	n/a	n/a	f	3	0.01000000000000001	1	f	1	0.3665675665251911
19	50	n/a	n/a	n/a	j	3	1.040834085586084e-17	0	j	1	0.3719730365555733
19	51	n/a	n/a	n/a	f	3	0.01000000000000001	0	f	1	0.3768413809593767
19	52	n/a	n/a	n/a	f	3	0.02000000000000001	1	f	1	0.4059359817765653
19	53	n/a	n/a	n/a	f	3	0.01000000000000001	2	f	1	0.3632957744412124
19	54	n/a	n/a	n/a	f	3	0.02000000000000001	0	f	1	0.392853090306744
19	55	n/a	n/a	n/a	f	3	0.03000000000000001	1	f	1	0.334855190012604
19	56	n/a	n/a	n/a	j	3	0.02000000000000001	0	j	1	0.3490368511993438
19	57	n/a	n/a	n/a	f	3	0.03000000000000001	0	f	1	0.331789524294436
19	58	n/a	n/a	n/a	f	3	0.04000000000000001	0	f	1	0.3760311305522919
19	59	n/a	n/a	n/a	f	3	0.05000000000000002	1	f	1	0.3569261005613953
19	60	n/a	n/a	n/a	f	3	0.04000000000000001	1	f	1	0.3770580557174981
19	61	n/a	n/a	n/a	f	3	0.03000000000000001	1	f	1	0.3747487566433847
19	62	n/a	n/a	n/a	j	3	0.02000000000000001	1	j	1	0.3311050024349242
19	63	n/a	n/a	n/a	f	3	0.01000000000000001	0	f	1	0.1676972983404994
19	64	n/a	n/a	n/a	f	3	0.02000000000000001	0	f	1	0.5154757243581116
19	65	n/a	n/a	n/a	f	3	0.03000000000000001	2	f	1	0.3671850899700075
19	66	n/a	n/a	n/a	f	3	0.04000000000000001	1	f	1	0.4117921928409487
19	67	n/a	n/a	n/a	f	3	0.03000000000000001	1	f	1	0.3618449072819203
19	68	n/a	n/a	n/a	j	3	0.02000000000000001	0	j	1	0.3745494727045298
19	69	n/a	n/a	n/a	f	3	0.03000000000000001	1	f	1	0.3797094731125981
19	70	n/a	n/a	n/a	f	3	0.02000000000000001	1	f	1	0.4165014519821852
19	71	n/a	n/a	n/a	f	3	0.01000000000000001	2	f	1	0.3974611398298293
20	0	j	1	0.660491430433467	j	4	0.02000000000000001	1	j	1	0.3630052588414401
20	1	n/a	n/a	n/a	j	4	0.01000000000000001	0	j	1	0.3823894003871828
20	2	n/a	n/a	n/a	f	4	0.02000000000000001	1	f	1	0.3376574241556227
20	3	n/a	n/a	n/a	j	4	0.01000000000000001	0	j	1	0.3983127293176949
20	4	n/a	n/a	n/a	j	4	0.02000000000000001	1	j	1	0.4127883273176849
20	5	n/a	n/a	n/a	j	4	0.01000000000000001	1	f	0	0.3771569849923253
20	6	n/a	n/a	n/a	j	4	0.02000000000000001	1	j	1	0.2466083241160959
20	7	n/a	n/a	n/a	j	4	0.01000000000000001	0	j	1	0.4673909882549196
20	8	n/a	n/a	n/a	f	4	0.02000000000000001	0	j	0	0.4077406560536474
20	9	n/a	n/a	n/a	j	4	0.03000000000000001	1	j	1	0.4366319815162569
20	10	n/a	n/a	n/a	j	4	0.02000000000000001	2	j	1	0.3774811422917992
20	11	n/a	n/a	n/a	j	4	0.03000000000000001	1	j	1	0.3904779336880893
20	12	n/a	n/a	n/a	j	4	0.02000000000000001	1	j	1	0.4515771372243762
20	13	n/a	n/a	n/a	j	4	0.01000000000000001	2	j	1	0.3907393692061305
20	14	n/a	n/a	n/a	f	4	0.02000000000000001	1	f	1	0.419548871461302
20	15	n/a	n/a	n/a	j	4	0.01000000000000001	2	j	1	1.167294739047065
20	16	n/a	n/a	n/a	j	4	0.02000000000000001	2	j	1	0.3972997737582773
20	17	n/a	n/a	n/a	j	4	0.03000000000000001	1	j	1	0.4062048296909779
20	18	n/a	n/a	n/a	j	4	0.02000000000000001	2	j	1	0.4245688880328089
20	19	n/a	n/a	n/a	j	4	0.03000000000000001	2	j	1	0.3963757692836225
20	20	n/a	n/a	n/a	f	4	0.04000000000000001	1	f	1	0.4161952561698854
20	21	n/a	n/a	n/a	j	4	0.03000000000000001	2	j	1	0.4047953020781279
20	22	n/a	n/a	n/a	j	4	0.04000000000000001	1	j	1	0.4341473469976336
20	23	n/a	n/a	n/a	j	4	0.03000000000000001	2	j	1	0.4150947753805667
20	24	n/a	n/a	n/a	j	4	0.04000000000000001	1	j	1	0.3971389783546329
20	25	n/a	n/a	n/a	j	4	0.03000000000000001	1	j	1	0.3962049949914217
20	26	n/a	n/a	n/a	f	4	0.02000000000000001	1	f	1	0.4174824764486402
20	27	n/a	n/a	n/a	j	4	0.01000000000000001	2	j	1	0.3818229092285037
20	28	n/a	n/a	n/a	j	4	0.02000000000000001	1	j	1	0.4130132701247931
20	29	n/a	n/a	n/a	j	4	0.01000000000000001	2	j	1	0.3630009824410081
20	30	n/a	n/a	n/a	j	4	0.02000000000000001	0	j	1	0.3909061518497765
20	31	n/a	n/a	n/a	j	4	0.03000000000000001	1	j	1	0.3568773488514125
20	32	n/a	n/a	n/a	f	4	0.02000000000000001	0	f	1	0.386894813971594
20	33	n/a	n/a	n/a	j	4	0.03000000000000001	1	j	1	0.3838756196200848
20	34	n/a	n/a	n/a	j	4	0.02000000000000001	1	j	1	0.3887485251761973
20	35	n/a	n/a	n/a	j	4	0.01000000000000001	1	j	1	0.3778435024432838
20	36	n/a	n/a	n/a	j	4	1.040834085586084e-17	0	j	1	0.3410552297718823
20	37	n/a	n/a	n/a	j	4	0.01000000000000001	0	j	1	0.3938084559049457
20	38	n/a	n/a	n/a	f	4	0.02000000000000001	1	f	1	0.3813949762843549
20	39	n/a	n/a	n/a	j	4	0.01000000000000001	1	j	1	0.3670482428278774
20	40	n/a	n/a	n/a	j	4	1.040834085586084e-17	0	j	1	0.3878236655145884
20	41	n/a	n/a	n/a	j	4	0.01000000000000001	1	j	1	0.3687417283654213
20	42	n/a	n/a	n/a	j	4	1.040834085586084e-17	0	j	1	0.3483420659322292
20	43	n/a	n/a	n/a	j	4	0.01000000000000001	0	j	1	0.3609736461658031
20	44	n/a	n/a	n/a	f	4	0.02000000000000001	0	f	1	0.4053324277047068
20	45	n/a	n/a	n/a	j	4	0.03000000000000001	1	j	1	0.3351955974940211
20	46	n/a	n/a	n/a	j	4	0.02000000000000001	0	j	1	0.4266053475439548
20	47	n/a	n/a	n/a	j	4	0.03000000000000001	2	j	1	0.3751900896895677
20	48	n/a	n/a	n/a	j	4	0.04000000000000001	1	j	1	0.3785685084294528
20	49	n/a	n/a	n/a	j	4	0.03000000000000001	1	j	1	0.3587601403705776
20	50	n/a	n/a	n/a	f	4	0.02000000000000001	1	j	0	0.3476988833863288
20	51	n/a	n/a	n/a	j	4	0.03000000000000001	0	j	1	0.3764641953166574
20	52	n/a	n/a	n/a	j	4	0.04000000000000001	1	j	1	0.3570261702407151
20	53	n/a	n/a	n/a	j	4	0.03000000000000001	1	j	1	0.3805961296893656
20	54	n/a	n/a	n/a	j	4	0.02000000000000001	1	j	1	0.3916382850147784
20	55	n/a	n/a	n/a	j	4	0.01000000000000001	2	j	1	0.3717614931520075
20	56	n/a	n/a	n/a	f	4	0.02000000000000001	1	f	1	0.3763649810571223
20	57	n/a	n/a	n/a	j	4	0.01000000000000001	1	j	1	0.3566156283486634
20	58	n/a	n/a	n/a	j	4	1.040834085586084e-17	0	j	1	0.3838434033095837
20	59	n/a	n/a	n/a	j	4	0.01000000000000001	1	j	1	0.3951025186106563
20	60	n/a	n/a	n/a	j	4	1.040834085586084e-17	2	j	1	0.3762797366362065
20	61	n/a	n/a	n/a	j	4	0.01000000000000001	1	j	1	0.3743002966511995
20	62	n/a	n/a	n/a	f	4	1.040834085586084e-17	0	f	1	0.3874268080107868
20	63	n/a	n/a	n/a	j	4	0.01000000000000001	1	j	1	0.3692035884596407
20	64	n/a	n/a	n/a	j	4	1.040834085586084e-17	0	j	1	0.3582004914060235
20	65	n/a	n/a	n/a	j	4	0.01000000000000001	0	j	1	0.3732314619701356
20	66	n/a	n/a	n/a	j	4	0.02000000000000001	1	j	1	0.3307782793417573
