blockLoop_thisRepN	trialLoop_thisRepN	firstKey	readyKey_corr	readyKey_rt	targetKey	blockType	margin	outcome	trialResp_keys	trialResp_corr	trialResp_rt
0	0	j	0	0.6353899207897484	j	4	0.1	0	j	1	0.4799096693750471
0	1	n/a	n/a	n/a	j	4	0.11	1	j	1	0.3989787196042016
0	2	n/a	n/a	n/a	f	4	0.1	1	j	0	0.4667218617396429
0	3	n/a	n/a	n/a	j	4	0.09000000000000001	1	j	1	0.7547607196029276
0	4	n/a	n/a	n/a	j	4	0.08000000000000002	2	j	1	0.3661749855382368
0	5	n/a	n/a	n/a	j	4	0.09000000000000001	2	f	0	0.4486708417534828
0	6	n/a	n/a	n/a	j	4	0.08000000000000002	1	j	1	0.4177439118502662
0	7	n/a	n/a	n/a	j	4	0.07000000000000002	1	j	1	0.4092713505961001
0	8	n/a	n/a	n/a	f	4	0.06000000000000002	1	j	0	0.44413406716194
0	9	n/a	n/a	n/a	j	4	0.05000000000000002	2	j	1	0.4710878622718155
0	10	n/a	n/a	n/a	j	4	0.06000000000000002	2	j	1	0.4207211969187483
0	11	n/a	n/a	n/a	j	4	0.07000000000000002	2	f	0	0.5657357625896111
0	12	n/a	n/a	n/a	j	4	0.06000000000000002	2	j	1	0.4245369570562616
0	13	n/a	n/a	n/a	j	4	0.07000000000000002	1	j	1	0.4209911853540689
0	14	n/a	n/a	n/a	f	4	0.06000000000000002	1	j	0	0.4366488023661077
0	15	n/a	n/a	n/a	j	4	0.05000000000000002	2	j	1	0.4352093393681571
0	16	n/a	n/a	n/a	j	4	0.06000000000000002	1	j	1	0.4216189725557342
0	17	n/a	n/a	n/a	j	4	0.05000000000000002	1	f	0	0.4623350490583107
0	18	n/a	n/a	n/a	j	4	0.04000000000000001	2	j	1	0.4543596998555586
0	19	n/a	n/a	n/a	j	4	0.05000000000000002	2	j	1	0.4700013514375314
0	20	n/a	n/a	n/a	f	4	0.06000000000000002	2	j	0	0.5268257858697325
0	21	n/a	n/a	n/a	j	4	0.07000000000000002	2	f	0	0.5062393835978583
0	22	n/a	n/a	n/a	j	4	0.08000000000000002	2	f	0	0.4392828287091106
0	23	n/a	n/a	n/a	j	4	0.09000000000000001	1	j	1	6.393108823918737
0	24	n/a	n/a	n/a	j	4	0.08000000000000002	2	j	1	0.4618232969660312
0	25	n/a	n/a	n/a	j	4	0.09000000000000001	1	j	1	0.4837921425933018
0	26	n/a	n/a	n/a	f	4	0.08000000000000002	2	f	1	0.5236309706233442
0	27	n/a	n/a	n/a	j	4	0.09000000000000001	2	j	1	0.4837180168833584
0	28	n/a	n/a	n/a	j	4	0.1	1	j	1	0.5133303569164127
0	29	n/a	n/a	n/a	j	4	0.09000000000000001	2	j	1	0.560694933636114
0	30	n/a	n/a	n/a	j	4	0.1	2	j	1	0.4538097445620224
0	31	n/a	n/a	n/a	j	4	0.11	1	j	1	0.5061835043597966
0	32	n/a	n/a	n/a	f	4	0.1	2	f	1	0.477759170345962
0	33	n/a	n/a	n/a	j	4	0.11	1	j	1	0.4855734388111159
0	34	n/a	n/a	n/a	j	4	0.1	2	j	1	1.087439751485363
0	35	n/a	n/a	n/a	j	4	0.11	2	j	1	0.5374197660712525
0	36	n/a	n/a	n/a	j	4	0.12	2	j	1	0.40756018855609
0	37	n/a	n/a	n/a	j	4	0.13	1	j	1	0.4544215662172064
0	38	n/a	n/a	n/a	f	4	0.12	1	f	1	0.4759399559115991
0	39	n/a	n/a	n/a	j	4	0.11	1	j	1	0.4864067820599303
0	40	n/a	n/a	n/a	j	4	0.1	2	j	1	0.5324681729543954
0	41	n/a	n/a	n/a	j	4	0.11	2	j	1	0.9873225189512596
0	42	n/a	n/a	n/a	j	4	0.12	2	j	1	0.4077321031363681
0	43	n/a	n/a	n/a	j	4	0.13	1	j	1	0.4202274060808122
0	44	n/a	n/a	n/a	f	4	0.12	1	f	1	0.4523403461789712
0	45	n/a	n/a	n/a	j	4	0.11	1	j	1	0.4878582193050534
0	46	n/a	n/a	n/a	j	4	0.1	2	j	1	0.4978369566379115
0	47	n/a	n/a	n/a	j	4	0.11	2	j	1	0.4635994614800438
0	48	n/a	n/a	n/a	j	4	0.12	1	j	1	0.4990663019707426
0	49	n/a	n/a	n/a	j	4	0.11	2	j	1	0.4057030561380088
0	50	n/a	n/a	n/a	f	4	0.12	1	f	1	0.4566661478020251
0	51	n/a	n/a	n/a	j	4	0.11	1	j	1	0.4716415237635374
0	52	n/a	n/a	n/a	j	4	0.1	1	j	1	0.4950218927115202
0	53	n/a	n/a	n/a	j	4	0.09000000000000002	2	j	1	0.4664786726934835
0	54	n/a	n/a	n/a	j	4	0.1	1	j	1	0.4679620407987386
0	55	n/a	n/a	n/a	j	4	0.09000000000000002	1	j	1	0.4794047597097233
0	56	n/a	n/a	n/a	f	4	0.08000000000000003	2	f	1	0.4620664861286059
0	57	n/a	n/a	n/a	j	4	0.09000000000000002	1	j	1	0.4523526054108515
0	58	n/a	n/a	n/a	j	4	0.08000000000000003	1	j	1	0.4884144468232989
0	59	n/a	n/a	n/a	j	4	0.07000000000000003	2	j	1	0.4804006092017516
0	60	n/a	n/a	n/a	j	4	0.08000000000000003	2	j	1	0.4222938009770587
0	61	n/a	n/a	n/a	j	4	0.09000000000000002	1	j	1	0.4859460627194494
0	62	n/a	n/a	n/a	f	4	0.08000000000000003	2	f	1	0.5048424003180116
0	63	n/a	n/a	n/a	j	4	0.09000000000000002	2	j	1	0.4608964413637295
0	64	n/a	n/a	n/a	j	4	0.1	1	j	1	0.5918134496314451
0	65	n/a	n/a	n/a	j	4	0.09000000000000002	2	j	1	2.887275990913622
0	66	n/a	n/a	n/a	j	4	0.1	2	j	1	0.4083168403012678
0	67	n/a	n/a	n/a	j	4	0.11	1	j	1	0.3896003999980167
0	68	n/a	n/a	n/a	f	4	0.1	1	f	1	1.181597567396238
0	69	n/a	n/a	n/a	j	4	0.09000000000000002	2	j	1	0.4173236764036119
0	70	n/a	n/a	n/a	j	4	0.1	1	j	1	0.4624251401983202
0	71	n/a	n/a	n/a	j	4	0.09000000000000002	1	j	1	1.029209495638497
1	0	f	1	2.483961206045933	f	5	0.1	2	f	1	0.6061459282645956
1	1	n/a	n/a	n/a	j	5	0.11	1	j	1	0.5696270739426836
1	2	n/a	n/a	n/a	f	5	0.1	1	f	1	0.596986849559471
1	3	n/a	n/a	n/a	f	5	0.09000000000000001	1	f	1	0.6010101615684107
1	4	n/a	n/a	n/a	f	5	0.08000000000000002	1	f	1	0.5829625625628978
1	5	n/a	n/a	n/a	j	5	0.07000000000000002	1	j	1	0.5519726258935407
1	6	n/a	n/a	n/a	f	5	0.06000000000000002	1	f	1	0.6069268134888262
1	7	n/a	n/a	n/a	f	5	0.05000000000000002	1	f	1	0.582904402515851
1	8	n/a	n/a	n/a	f	5	0.04000000000000001	1	f	1	0.554375437204726
1	9	n/a	n/a	n/a	j	5	0.03000000000000001	0	j	1	0.6077835349133238
1	10	n/a	n/a	n/a	f	5	0.04000000000000001	1	f	1	0.6125207337317988
1	11	n/a	n/a	n/a	f	5	0.03000000000000001	2	f	1	0.6227349626133218
1	12	n/a	n/a	n/a	f	5	0.04000000000000001	1	f	1	0.5996485303621739
1	13	n/a	n/a	n/a	j	5	0.03000000000000001	1	j	1	0.6186788643244654
1	14	n/a	n/a	n/a	f	5	0.02000000000000001	2	f	1	0.574243105831556
1	15	n/a	n/a	n/a	f	5	0.03000000000000001	1	f	1	0.6281606747070327
1	16	n/a	n/a	n/a	f	5	0.02000000000000001	2	f	1	0.5905484670074657
1	17	n/a	n/a	n/a	j	5	0.03000000000000001	1	j	1	0.5944665775168687
1	18	n/a	n/a	n/a	f	5	0.02000000000000001	1	f	1	0.5966789430240169
1	19	n/a	n/a	n/a	f	5	0.01000000000000001	2	f	1	0.6365953179774806
1	20	n/a	n/a	n/a	f	5	0.02000000000000001	2	f	1	0.5722026549046859
1	21	n/a	n/a	n/a	j	5	0.03000000000000001	1	j	1	0.6201713556656614
1	22	n/a	n/a	n/a	f	5	0.02000000000000001	2	f	1	0.5443080342374742
1	23	n/a	n/a	n/a	f	5	0.03000000000000001	0	f	1	0.6162942993687466
1	24	n/a	n/a	n/a	f	5	0.04000000000000001	1	f	1	0.6482780897058547
1	25	n/a	n/a	n/a	j	5	0.03000000000000001	2	j	1	0.606744350399822
1	26	n/a	n/a	n/a	f	5	0.04000000000000001	1	f	1	0.6197351547889411
1	27	n/a	n/a	n/a	f	5	0.03000000000000001	2	f	1	0.5570758915273473
1	28	n/a	n/a	n/a	f	5	0.04000000000000001	1	f	1	0.6221043245168403
1	29	n/a	n/a	n/a	j	5	0.03000000000000001	2	j	1	0.5986261666985229
1	30	n/a	n/a	n/a	f	5	0.04000000000000001	1	f	1	0.559074433054775
1	31	n/a	n/a	n/a	f	5	0.03000000000000001	1	f	1	0.612562928465195
1	32	n/a	n/a	n/a	f	5	0.02000000000000001	2	f	1	0.6219432436628267
1	33	n/a	n/a	n/a	j	5	0.03000000000000001	2	j	1	0.6160154729150236
1	34	n/a	n/a	n/a	f	5	0.04000000000000001	1	f	1	0.6154455607756972
1	35	n/a	n/a	n/a	f	5	0.03000000000000001	2	f	1	0.6130045461468399
1	36	n/a	n/a	n/a	f	5	0.04000000000000001	2	j	0	0.6014090144308284
1	37	n/a	n/a	n/a	j	5	0.03000000000000001	1	j	1	0.7783318194560707
1	38	n/a	n/a	n/a	f	5	0.02000000000000001	2	f	1	0.5387411982519552
1	39	n/a	n/a	n/a	f	5	0.03000000000000001	0	f	1	0.583752570906654
1	40	n/a	n/a	n/a	f	5	0.04000000000000001	1	f	1	0.5966182170668617
1	41	n/a	n/a	n/a	j	5	0.03000000000000001	1	j	1	0.6048216451890767
1	42	n/a	n/a	n/a	f	5	0.02000000000000001	1	f	1	0.5741786735597998
1	43	n/a	n/a	n/a	f	5	0.01000000000000001	0	f	1	0.626554143964313
1	44	n/a	n/a	n/a	f	5	0.02000000000000001	2	f	1	0.6310681106988341
1	45	n/a	n/a	n/a	j	5	0.03000000000000001	2	j	1	0.5918143049348146
1	46	n/a	n/a	n/a	f	5	0.04000000000000001	1	f	1	0.6554936511674896
1	47	n/a	n/a	n/a	f	5	0.03000000000000001	2	f	1	0.5722103526350111
1	48	n/a	n/a	n/a	f	5	0.04000000000000001	1	f	1	0.5603990012314171
1	49	n/a	n/a	n/a	j	5	0.03000000000000001	1	j	1	0.5999478839803487
1	50	n/a	n/a	n/a	f	5	0.02000000000000001	2	f	1	0.574432126362808
1	51	n/a	n/a	n/a	f	5	0.03000000000000001	1	f	1	0.6507764090783894
1	52	n/a	n/a	n/a	f	5	0.02000000000000001	2	f	1	0.5529431017348543
1	53	n/a	n/a	n/a	j	5	0.03000000000000001	0	j	1	0.57425793108996
1	54	n/a	n/a	n/a	f	5	0.04000000000000001	1	f	1	0.6072293031029403
1	55	n/a	n/a	n/a	f	5	0.03000000000000001	1	f	1	0.5991698497673497
1	56	n/a	n/a	n/a	f	5	0.02000000000000001	1	f	1	0.5671458604047075
1	57	n/a	n/a	n/a	j	5	0.01000000000000001	0	j	1	0.6116625869181007
1	58	n/a	n/a	n/a	f	5	0.02000000000000001	2	f	1	0.5710762302624062
1	59	n/a	n/a	n/a	f	5	0.03000000000000001	1	f	1	0.6132317698793486
1	60	n/a	n/a	n/a	f	5	0.02000000000000001	2	f	1	0.5656827342463657
1	61	n/a	n/a	n/a	j	5	0.03000000000000001	1	j	1	0.5999766789609566
1	62	n/a	n/a	n/a	f	5	0.02000000000000001	1	f	1	0.5989049931522459
1	63	n/a	n/a	n/a	f	5	0.01000000000000001	2	f	1	0.6088931388221681
1	64	n/a	n/a	n/a	f	5	0.02000000000000001	2	f	1	0.6028253844706342
1	65	n/a	n/a	n/a	j	5	0.03000000000000001	1	j	1	0.6094579191412777
1	66	n/a	n/a	n/a	f	5	0.02000000000000001	2	f	1	0.5917729657376185
1	67	n/a	n/a	n/a	f	5	0.03000000000000001	1	f	1	0.6517956367461011
1	68	n/a	n/a	n/a	f	5	0.02000000000000001	2	f	1	0.5722348710987717
1	69	n/a	n/a	n/a	j	5	0.03000000000000001	1	j	1	0.5638592432951555
1	70	n/a	n/a	n/a	f	5	0.02000000000000001	0	f	1	0.6116166859865189
1	71	n/a	n/a	n/a	f	5	0.03000000000000001	1	f	1	0.6305828726617619
2	0	j	1	1.520407930482179	j	6	0.1	1	j	1	0.6068347266409546
2	1	n/a	n/a	n/a	f	6	0.09000000000000001	1	f	1	0.5710112277884036
2	2	n/a	n/a	n/a	j	6	0.08000000000000002	1	j	1	0.5814133365638554
2	3	n/a	n/a	n/a	j	6	0.07000000000000002	1	j	1	0.6112209691200405
2	4	n/a	n/a	n/a	j	6	0.06000000000000002	1	j	1	0.5541513498174027
2	5	n/a	n/a	n/a	f	6	0.05000000000000002	1	f	1	0.604665981256403
2	6	n/a	n/a	n/a	j	6	0.04000000000000001	1	j	1	0.5719127096235752
2	7	n/a	n/a	n/a	j	6	0.03000000000000001	1	j	1	0.6185571271926165
2	8	n/a	n/a	n/a	j	6	0.02000000000000001	2	j	1	0.5550092115299776
2	9	n/a	n/a	n/a	f	6	0.03000000000000001	1	f	1	0.6162783338222653
2	10	n/a	n/a	n/a	j	6	0.02000000000000001	2	j	1	0.5789557863026857
2	11	n/a	n/a	n/a	j	6	0.03000000000000001	1	j	1	0.6064760725712404
2	12	n/a	n/a	n/a	j	6	0.02000000000000001	1	j	1	0.5888404410798103
2	13	n/a	n/a	n/a	f	6	0.01000000000000001	1	f	1	0.6290248086443171
2	14	n/a	n/a	n/a	j	6	1.040834085586084e-17	2	j	1	0.5854759920621291
2	15	n/a	n/a	n/a	j	6	0.01000000000000001	1	j	1	0.5883563435636461
2	16	n/a	n/a	n/a	j	6	1.040834085586084e-17	2	j	1	0.599755157250911
2	17	n/a	n/a	n/a	f	6	0.01000000000000001	2	f	1	0.5837214951170608
2	18	n/a	n/a	n/a	j	6	0.02000000000000001	1	j	1	0.6166597957490012
2	19	n/a	n/a	n/a	j	6	0.01000000000000001	2	j	1	0.611248908797279
2	20	n/a	n/a	n/a	j	6	0.02000000000000001	2	f	0	0.5236346769379452
2	21	n/a	n/a	n/a	f	6	0.03000000000000001	2	j	0	0.03576590900775045
2	22	n/a	n/a	n/a	j	6	0.04000000000000001	0	j	1	0.6665834177983925
2	23	n/a	n/a	n/a	j	6	0.05000000000000002	2	j	1	0.6985897311242297
2	24	n/a	n/a	n/a	j	6	0.06000000000000002	2	f	0	0.531159000005573
2	25	n/a	n/a	n/a	f	6	0.07000000000000002	2	j	0	1.074448376893997
2	26	n/a	n/a	n/a	j	6	0.06000000000000002	2	j	1	0.9733424222795293
2	27	n/a	n/a	n/a	j	6	0.07000000000000002	2	j	1	1.460485614254139
2	28	n/a	n/a	n/a	j	6	0.08000000000000002	2	f	0	0.8917315122671425
2	29	n/a	n/a	n/a	f	6	0.09000000000000001	2	f	1	0.7356944631319493
2	30	n/a	n/a	n/a	j	6	0.1	2	j	1	0.5709544930141419
2	31	n/a	n/a	n/a	j	6	0.11	1	j	1	0.6139781581005082
2	32	n/a	n/a	n/a	j	6	0.1	1	j	1	0.5460628162836656
2	33	n/a	n/a	n/a	f	6	0.09000000000000001	1	f	1	0.5615285621024668
2	34	n/a	n/a	n/a	j	6	0.08000000000000002	1	j	1	0.5090441840002313
2	35	n/a	n/a	n/a	j	6	0.07000000000000002	0	j	1	0.6069829778280109
2	36	n/a	n/a	n/a	j	6	0.08000000000000002	1	j	1	0.6119930162094533
2	37	n/a	n/a	n/a	f	6	0.07000000000000002	1	f	1	0.5568882966181263
2	38	n/a	n/a	n/a	j	6	0.06000000000000002	1	j	1	0.5558744858717546
2	39	n/a	n/a	n/a	j	6	0.05000000000000002	1	j	1	0.6138039627112448
2	40	n/a	n/a	n/a	j	6	0.04000000000000001	1	j	1	0.5717807089677081
2	41	n/a	n/a	n/a	f	6	0.03000000000000001	1	f	1	0.5347731955116615
2	42	n/a	n/a	n/a	j	6	0.02000000000000001	0	j	1	0.5478851668303832
2	43	n/a	n/a	n/a	j	6	0.03000000000000001	0	j	1	0.680387323605828
2	44	n/a	n/a	n/a	j	6	0.04000000000000001	2	j	1	0.5558864601189271
2	45	n/a	n/a	n/a	f	6	0.05000000000000002	1	f	1	0.5341858922038227
2	46	n/a	n/a	n/a	j	6	0.04000000000000001	0	j	1	0.5926425164798275
2	47	n/a	n/a	n/a	j	6	0.05000000000000002	1	j	1	0.5875897133955732
2	48	n/a	n/a	n/a	j	6	0.04000000000000001	1	j	1	0.6220011187251657
2	49	n/a	n/a	n/a	f	6	0.03000000000000001	2	f	1	0.5636884693522006
2	50	n/a	n/a	n/a	j	6	0.04000000000000001	1	j	1	0.5604851010721177
2	51	n/a	n/a	n/a	j	6	0.03000000000000001	1	j	1	0.6007396029308438
2	52	n/a	n/a	n/a	j	6	0.02000000000000001	1	j	1	0.6149492040276527
2	53	n/a	n/a	n/a	f	6	0.01000000000000001	2	f	1	0.5646304351976141
2	54	n/a	n/a	n/a	j	6	0.02000000000000001	1	j	1	0.5724988725269213
2	55	n/a	n/a	n/a	j	6	0.01000000000000001	1	j	1	0.6148340242216364
2	56	n/a	n/a	n/a	j	6	1.040834085586084e-17	2	j	1	0.5840864212950692
2	57	n/a	n/a	n/a	f	6	0.01000000000000001	1	f	1	0.5820585148176178
2	58	n/a	n/a	n/a	j	6	1.040834085586084e-17	0	j	1	0.545722693670541
2	59	n/a	n/a	n/a	j	6	0.01000000000000001	0	j	1	0.6332080609863624
2	60	n/a	n/a	n/a	j	6	0.02000000000000001	2	j	1	0.5741940689040348
2	61	n/a	n/a	n/a	f	6	0.03000000000000001	1	f	1	0.5831128094578162
2	62	n/a	n/a	n/a	j	6	0.02000000000000001	1	j	1	0.5660545028513297
2	63	n/a	n/a	n/a	j	6	0.01000000000000001	0	j	1	0.6105760760838166
2	64	n/a	n/a	n/a	j	6	0.02000000000000001	2	j	1	0.5840399502776563
2	65	n/a	n/a	n/a	f	6	0.03000000000000001	1	f	1	0.5809959521284327
2	66	n/a	n/a	n/a	j	6	0.02000000000000001	1	j	1	0.6234320286894217
2	67	n/a	n/a	n/a	j	6	0.01000000000000001	2	j	1	0.5970846384298056
2	68	n/a	n/a	n/a	j	6	0.02000000000000001	1	j	1	0.549837522325106
2	69	n/a	n/a	n/a	f	6	0.01000000000000001	0	f	1	0.5743845148244873
2	70	n/a	n/a	n/a	j	6	0.02000000000000001	1	j	1	0.6038089747307822
2	71	n/a	n/a	n/a	j	6	0.01000000000000001	2	j	1	0.6022970967460424
3	0	j	1	2.748714632703923	j	12	0.1	0	j	1	0.8954050083411857
3	1	n/a	n/a	n/a	j	12	0.11	1	j	1	0.9953543177107349
3	2	n/a	n/a	n/a	f	12	0.1	1	f	1	0.9996604475891218
3	3	n/a	n/a	n/a	j	12	0.09000000000000001	1	j	1	1.044291498488747
3	4	n/a	n/a	n/a	j	12	0.08000000000000002	1	j	1	0.9986586108570918
3	5	n/a	n/a	n/a	j	12	0.07000000000000002	1	j	1	0.9505633263615891
3	6	n/a	n/a	n/a	j	12	0.06000000000000002	1	j	1	1.013385095866397
3	7	n/a	n/a	n/a	j	12	0.05000000000000002	1	j	1	0.9735112006310374
3	8	n/a	n/a	n/a	f	12	0.04000000000000001	1	f	1	0.9904714333824813
3	9	n/a	n/a	n/a	j	12	0.03000000000000001	1	j	1	0.9583858627593145
3	10	n/a	n/a	n/a	j	12	0.02000000000000001	0	j	1	1.038346051587723
3	11	n/a	n/a	n/a	j	12	0.03000000000000001	2	j	1	1.014260348631069
3	12	n/a	n/a	n/a	j	12	0.04000000000000001	2	f	0	1.024185202317312
3	13	n/a	n/a	n/a	j	12	0.03000000000000001	2	j	1	0.3119774498045444
3	14	n/a	n/a	n/a	f	12	0.04000000000000001	2	j	0	0.8516095813829452
3	15	n/a	n/a	n/a	j	12	0.05000000000000002	0	j	1	1.135609446791932
3	16	n/a	n/a	n/a	j	12	0.06000000000000002	2	j	1	1.015863173175603
3	17	n/a	n/a	n/a	j	12	0.07000000000000002	1	j	1	0.9636214140336961
3	18	n/a	n/a	n/a	j	12	0.06000000000000002	1	f	0	1.034857869846746
3	19	n/a	n/a	n/a	j	12	0.05000000000000002	1	f	0	1.19687229685951
3	20	n/a	n/a	n/a	f	12	0.04000000000000001	1	j	0	0.2467964891111478
3	21	n/a	n/a	n/a	j	12	0.05000000000000002	0	j	1	1.314846397493966
3	22	n/a	n/a	n/a	j	12	0.06000000000000002	2	j	1	0.8694807043066248
3	23	n/a	n/a	n/a	j	12	0.07000000000000002	0	j	1	1.037796951597556
3	24	n/a	n/a	n/a	j	12	0.08000000000000002	1	j	1	1.071571731590666
3	25	n/a	n/a	n/a	j	12	0.07000000000000002	2	j	1	1.006500534014776
3	26	n/a	n/a	n/a	f	12	0.08000000000000002	1	f	1	0.9944260366028175
3	27	n/a	n/a	n/a	j	12	0.07000000000000002	1	j	1	0.9885695404373109
3	28	n/a	n/a	n/a	j	12	0.06000000000000002	1	j	1	1.006349431700073
3	29	n/a	n/a	n/a	j	12	0.05000000000000002	1	j	1	0.9987179114250466
3	30	n/a	n/a	n/a	j	12	0.04000000000000001	1	j	1	1.104218946537003
3	31	n/a	n/a	n/a	j	12	0.03000000000000001	2	j	1	0.9749823096208274
3	32	n/a	n/a	n/a	f	12	0.04000000000000001	1	f	1	1.023702245322056
3	33	n/a	n/a	n/a	j	12	0.03000000000000001	2	j	1	1.050586191355251
3	34	n/a	n/a	n/a	j	12	0.04000000000000001	2	j	1	1.013548172311857
3	35	n/a	n/a	n/a	j	12	0.05000000000000002	1	j	1	1.077312762849033
3	36	n/a	n/a	n/a	j	12	0.04000000000000001	2	j	1	0.9548261212185025
3	37	n/a	n/a	n/a	j	12	0.05000000000000002	1	j	1	1.012992800096981
3	38	n/a	n/a	n/a	f	12	0.04000000000000001	1	f	1	1.036954770213924
3	39	n/a	n/a	n/a	j	12	0.03000000000000001	2	j	1	1.089734795503318
3	40	n/a	n/a	n/a	j	12	0.04000000000000001	2	j	1	1.026660713832825
3	41	n/a	n/a	n/a	j	12	0.05000000000000002	1	j	1	1.081578693818301
3	42	n/a	n/a	n/a	j	12	0.04000000000000001	2	j	1	1.008476267568767
3	43	n/a	n/a	n/a	j	12	0.05000000000000002	1	j	1	1.039342756383121
3	44	n/a	n/a	n/a	f	12	0.04000000000000001	2	f	1	1.058414144557901
3	45	n/a	n/a	n/a	j	12	0.05000000000000002	2	j	1	1.118417999125086
3	46	n/a	n/a	n/a	j	12	0.06000000000000002	2	j	1	1.019278084626421
3	47	n/a	n/a	n/a	j	12	0.07000000000000002	1	j	1	1.11075939447619
3	48	n/a	n/a	n/a	j	12	0.06000000000000002	2	j	1	1.03515351715032
3	49	n/a	n/a	n/a	j	12	0.07000000000000002	1	j	1	1.094960653455928
3	50	n/a	n/a	n/a	f	12	0.06000000000000002	2	f	1	1.068971061846241
3	51	n/a	n/a	n/a	j	12	0.07000000000000002	2	j	1	1.103628222248517
3	52	n/a	n/a	n/a	j	12	0.08000000000000002	2	j	1	0.9759371050167829
3	53	n/a	n/a	n/a	j	12	0.09000000000000001	1	j	1	0.9848681048024446
3	54	n/a	n/a	n/a	j	12	0.08000000000000002	1	j	1	1.019985414342955
3	55	n/a	n/a	n/a	j	12	0.07000000000000002	1	j	1	1.005998475360684
3	56	n/a	n/a	n/a	f	12	0.06000000000000002	1	f	1	1.048329920740798
3	57	n/a	n/a	n/a	j	12	0.05000000000000002	2	j	1	0.9920916489791125
3	58	n/a	n/a	n/a	j	12	0.06000000000000002	1	j	1	1.035732552409172
3	59	n/a	n/a	n/a	j	12	0.05000000000000002	2	j	1	1.052363496157341
3	60	n/a	n/a	n/a	j	12	0.06000000000000002	2	j	1	1.102448769146577
3	61	n/a	n/a	n/a	j	12	0.07000000000000002	2	j	1	0.9843768798746169
3	62	n/a	n/a	n/a	f	12	0.08000000000000002	1	f	1	0.9873054131167009
3	63	n/a	n/a	n/a	j	12	0.07000000000000002	1	j	1	0.9711388949071988
3	64	n/a	n/a	n/a	j	12	0.06000000000000002	1	j	1	1.067213998991065
3	65	n/a	n/a	n/a	j	12	0.05000000000000002	2	j	1	0.9745386961149052
3	66	n/a	n/a	n/a	j	12	0.06000000000000002	1	j	1	1.039066210738383
3	67	n/a	n/a	n/a	j	12	0.05000000000000002	2	j	1	1.037550056236796
3	68	n/a	n/a	n/a	f	12	0.06000000000000002	1	f	1	0.9189096802147105
3	69	n/a	n/a	n/a	j	12	0.05000000000000002	0	j	1	0.9435644400073215
3	70	n/a	n/a	n/a	j	12	0.06000000000000002	1	j	1	1.028369594947435
3	71	n/a	n/a	n/a	j	12	0.05000000000000002	1	j	1	0.9854514165781438
4	0	f	1	2.432150231092237	f	9	0.1	1	f	1	0.9927439545281231
4	1	n/a	n/a	n/a	j	9	0.09000000000000001	1	j	1	0.9724540549796075
4	2	n/a	n/a	n/a	f	9	0.08000000000000002	1	f	1	1.020823319326155
4	3	n/a	n/a	n/a	f	9	0.07000000000000002	1	f	1	1.01583209738601
4	4	n/a	n/a	n/a	f	9	0.06000000000000002	1	f	1	0.9722718768753111
4	5	n/a	n/a	n/a	j	9	0.05000000000000002	1	j	1	1.02084099536296
4	6	n/a	n/a	n/a	f	9	0.04000000000000001	1	f	1	1.006623981636949
4	7	n/a	n/a	n/a	f	9	0.03000000000000001	1	f	1	0.9941437889356166
4	8	n/a	n/a	n/a	f	9	0.02000000000000001	1	f	1	1.001459990045987
4	9	n/a	n/a	n/a	j	9	0.01000000000000001	2	j	1	1.053898467216641
4	10	n/a	n/a	n/a	f	9	0.02000000000000001	2	f	1	0.9492926418315619
4	11	n/a	n/a	n/a	f	9	0.03000000000000001	0	f	1	0.9809525602031499
4	12	n/a	n/a	n/a	f	9	0.04000000000000001	1	f	1	1.035475678509101
4	13	n/a	n/a	n/a	j	9	0.03000000000000001	2	j	1	0.966746665420942
4	14	n/a	n/a	n/a	f	9	0.04000000000000001	1	f	1	0.9537829452892765
4	15	n/a	n/a	n/a	f	9	0.03000000000000001	0	f	1	1.006105957436375
4	16	n/a	n/a	n/a	f	9	0.04000000000000001	1	f	1	0.9420776505721733
4	17	n/a	n/a	n/a	j	9	0.03000000000000001	0	j	1	0.9990055758971721
4	18	n/a	n/a	n/a	f	9	0.04000000000000001	1	f	1	0.9925121694104746
4	19	n/a	n/a	n/a	f	9	0.03000000000000001	1	f	1	1.001543523976579
4	20	n/a	n/a	n/a	f	9	0.02000000000000001	2	f	1	0.9970053238794208
4	21	n/a	n/a	n/a	j	9	0.03000000000000001	1	j	1	0.9497898537665606
4	22	n/a	n/a	n/a	f	9	0.02000000000000001	0	f	1	1.028899878496304
4	23	n/a	n/a	n/a	f	9	0.03000000000000001	2	f	1	1.076856320025399
4	24	n/a	n/a	n/a	f	9	0.04000000000000001	2	f	1	0.9487652092939243
4	25	n/a	n/a	n/a	j	9	0.05000000000000002	1	j	1	0.9415419502183795
4	26	n/a	n/a	n/a	f	9	0.04000000000000001	1	f	1	0.9366151607828215
4	27	n/a	n/a	n/a	f	9	0.03000000000000001	0	f	1	0.9670083858072758
4	28	n/a	n/a	n/a	f	9	0.04000000000000001	1	f	1	0.9655164647847414
4	29	n/a	n/a	n/a	j	9	0.03000000000000001	1	j	1	0.9033213420771062
4	30	n/a	n/a	n/a	f	9	0.02000000000000001	0	f	1	0.9632830020273104
4	31	n/a	n/a	n/a	f	9	0.03000000000000001	1	f	1	1.003233303548768
4	32	n/a	n/a	n/a	f	9	0.02000000000000001	1	f	1	0.9871129714883864
4	33	n/a	n/a	n/a	j	9	0.01000000000000001	1	j	1	0.9996302269864827
4	34	n/a	n/a	n/a	f	9	1.040834085586084e-17	2	f	1	1.004190379753709
4	35	n/a	n/a	n/a	f	9	0.01000000000000001	2	f	1	0.9401697705034167
4	36	n/a	n/a	n/a	f	9	0.02000000000000001	0	f	1	0.9268582301447168
4	37	n/a	n/a	n/a	j	9	0.03000000000000001	0	j	1	0.9361456033075228
4	38	n/a	n/a	n/a	f	9	0.04000000000000001	0	f	1	0.989351851050742
4	39	n/a	n/a	n/a	f	9	0.05000000000000002	1	f	1	1.021937199519016
4	40	n/a	n/a	n/a	f	9	0.04000000000000001	2	f	1	1.004272203077562
4	41	n/a	n/a	n/a	j	9	0.05000000000000002	1	j	1	0.9808442227076739
4	42	n/a	n/a	n/a	f	9	0.04000000000000001	1	f	1	0.9957283671246842
4	43	n/a	n/a	n/a	f	9	0.03000000000000001	1	f	1	1.013202917762101
4	44	n/a	n/a	n/a	f	9	0.02000000000000001	2	f	1	1.014499261393212
4	45	n/a	n/a	n/a	j	9	0.03000000000000001	2	j	1	1.005306255770847
4	46	n/a	n/a	n/a	f	9	0.04000000000000001	1	f	1	0.9805123679107055
4	47	n/a	n/a	n/a	f	9	0.03000000000000001	1	f	1	0.956432081758976
4	48	n/a	n/a	n/a	f	9	0.02000000000000001	0	f	1	0.9814292450901121
4	49	n/a	n/a	n/a	j	9	0.03000000000000001	1	j	1	0.9563271655933931
4	50	n/a	n/a	n/a	f	9	0.02000000000000001	0	f	1	0.9741945822024718
4	51	n/a	n/a	n/a	f	9	0.03000000000000001	1	f	1	1.036080087651499
4	52	n/a	n/a	n/a	f	9	0.02000000000000001	2	f	1	0.9546345348935574
4	53	n/a	n/a	n/a	j	9	0.03000000000000001	0	j	1	0.9399399809772149
4	54	n/a	n/a	n/a	f	9	0.04000000000000001	0	f	1	0.9886935583781451
4	55	n/a	n/a	n/a	f	9	0.05000000000000002	1	f	1	1.016860733390786
4	56	n/a	n/a	n/a	f	9	0.04000000000000001	1	f	1	1.01960366719868
4	57	n/a	n/a	n/a	j	9	0.03000000000000001	2	j	1	0.987714244518429
4	58	n/a	n/a	n/a	f	9	0.04000000000000001	1	f	1	0.958657561801374
4	59	n/a	n/a	n/a	f	9	0.03000000000000001	1	f	1	0.9676341774174944
4	60	n/a	n/a	n/a	f	9	0.02000000000000001	1	f	1	0.9705823824042454
4	61	n/a	n/a	n/a	j	9	0.01000000000000001	0	j	1	1.028673795284703
4	62	n/a	n/a	n/a	f	9	0.02000000000000001	2	f	1	0.9256120640784502
4	63	n/a	n/a	n/a	f	9	0.03000000000000001	0	f	1	0.98922213120386
4	64	n/a	n/a	n/a	f	9	0.04000000000000001	1	f	1	0.9529453255236149
4	65	n/a	n/a	n/a	j	9	0.03000000000000001	0	j	1	1.031291856081225
4	66	n/a	n/a	n/a	f	9	0.04000000000000001	2	f	1	0.9752830886282027
4	67	n/a	n/a	n/a	f	9	0.05000000000000002	1	f	1	0.9931801555212587
4	68	n/a	n/a	n/a	f	9	0.04000000000000001	1	f	1	1.009825639310293
4	69	n/a	n/a	n/a	j	9	0.03000000000000001	1	j	1	0.9067134456709027
4	70	n/a	n/a	n/a	f	9	0.02000000000000001	0	f	1	0.9950489770853892
4	71	n/a	n/a	n/a	f	9	0.03000000000000001	1	f	1	0.978937768144533
5	0	j	1	1.992551513132639	j	8	0.1	2	j	1	0.5888333136681467
5	1	n/a	n/a	n/a	j	8	0.11	1	j	1	0.5967422350076959
5	2	n/a	n/a	n/a	f	8	0.1	1	f	1	0.6518418226623908
5	3	n/a	n/a	n/a	j	8	0.09000000000000001	1	j	1	0.6026146966032684
5	4	n/a	n/a	n/a	j	8	0.08000000000000002	1	j	1	0.5946681423811242
5	5	n/a	n/a	n/a	j	8	0.07000000000000002	1	j	1	0.6259491646196693
5	6	n/a	n/a	n/a	j	8	0.06000000000000002	1	j	1	0.5865855960873887
5	7	n/a	n/a	n/a	j	8	0.05000000000000002	1	j	1	0.6434422467136756
5	8	n/a	n/a	n/a	f	8	0.04000000000000001	2	f	1	0.5887007428100333
5	9	n/a	n/a	n/a	j	8	0.05000000000000002	1	j	1	0.5406895624473691
5	10	n/a	n/a	n/a	j	8	0.04000000000000001	1	j	1	0.6206018546363339
5	11	n/a	n/a	n/a	j	8	0.03000000000000001	2	j	1	0.596546086948365
5	12	n/a	n/a	n/a	j	8	0.04000000000000001	1	j	1	0.5881827184930444
5	13	n/a	n/a	n/a	j	8	0.03000000000000001	1	j	1	0.5814233151031658
5	14	n/a	n/a	n/a	f	8	0.02000000000000001	1	f	1	0.566211307188496
5	15	n/a	n/a	n/a	j	8	0.01000000000000001	0	j	1	0.6242750654928386
5	16	n/a	n/a	n/a	j	8	0.02000000000000001	2	j	1	0.5737333495635539
5	17	n/a	n/a	n/a	j	8	0.03000000000000001	1	j	1	0.6187549856258556
5	18	n/a	n/a	n/a	j	8	0.02000000000000001	2	j	1	0.5561535974266008
5	19	n/a	n/a	n/a	j	8	0.03000000000000001	0	j	1	0.5950975009473041
5	20	n/a	n/a	n/a	f	8	0.04000000000000001	1	f	1	0.595855007879436
5	21	n/a	n/a	n/a	j	8	0.03000000000000001	1	j	1	0.6120708481175825
5	22	n/a	n/a	n/a	j	8	0.02000000000000001	2	j	1	0.6039746170863509
5	23	n/a	n/a	n/a	j	8	0.03000000000000001	1	j	1	0.6409727223217487
5	24	n/a	n/a	n/a	j	8	0.02000000000000001	2	j	1	0.5814618034055457
5	25	n/a	n/a	n/a	j	8	0.03000000000000001	1	j	1	0.62491881812457
5	26	n/a	n/a	n/a	f	8	0.02000000000000001	2	f	1	0.6188499234849587
5	27	n/a	n/a	n/a	j	8	0.03000000000000001	2	j	1	0.6140303311403841
5	28	n/a	n/a	n/a	j	8	0.04000000000000001	1	j	1	0.641780121717602
5	29	n/a	n/a	n/a	j	8	0.03000000000000001	2	j	1	0.6052427358226851
5	30	n/a	n/a	n/a	j	8	0.04000000000000001	1	j	1	0.5517359940567985
5	31	n/a	n/a	n/a	j	8	0.03000000000000001	0	j	1	0.6189616821939126
5	32	n/a	n/a	n/a	f	8	0.04000000000000001	1	f	1	0.6221947006415576
5	33	n/a	n/a	n/a	j	8	0.03000000000000001	2	j	1	0.6085612840251997
5	34	n/a	n/a	n/a	j	8	0.04000000000000001	1	j	1	0.5985879634972662
5	35	n/a	n/a	n/a	j	8	0.03000000000000001	1	j	1	0.6305526522919536
5	36	n/a	n/a	n/a	j	8	0.02000000000000001	2	j	1	0.5665214945329353
5	37	n/a	n/a	n/a	j	8	0.03000000000000001	1	j	1	0.5664425221038982
5	38	n/a	n/a	n/a	f	8	0.02000000000000001	1	f	1	0.6205970079172403
5	39	n/a	n/a	n/a	j	8	0.01000000000000001	2	j	1	0.6295847423607484
5	40	n/a	n/a	n/a	j	8	0.02000000000000001	2	j	1	0.6135028986027464
5	41	n/a	n/a	n/a	j	8	0.03000000000000001	2	j	1	0.5812043591868132
5	42	n/a	n/a	n/a	j	8	0.04000000000000001	1	j	1	0.6379364219028503
5	43	n/a	n/a	n/a	j	8	0.03000000000000001	2	j	1	0.5937951703090221
5	44	n/a	n/a	n/a	f	8	0.04000000000000001	1	f	1	0.5882830732734874
5	45	n/a	n/a	n/a	j	8	0.03000000000000001	1	j	1	0.5997098266379908
5	46	n/a	n/a	n/a	j	8	0.02000000000000001	1	j	1	0.5941997251939029
5	47	n/a	n/a	n/a	j	8	0.01000000000000001	1	j	1	0.5991516035282984
5	48	n/a	n/a	n/a	j	8	1.040834085586084e-17	2	j	1	0.5670996744884178
5	49	n/a	n/a	n/a	j	8	0.01000000000000001	0	j	1	0.6150501288939267
5	50	n/a	n/a	n/a	f	8	0.02000000000000001	2	f	1	0.6310042485129088
5	51	n/a	n/a	n/a	j	8	0.03000000000000001	2	j	1	0.583694695844315
5	52	n/a	n/a	n/a	j	8	0.04000000000000001	1	j	1	0.5954846648965031
5	53	n/a	n/a	n/a	j	8	0.03000000000000001	1	j	1	0.5934966721106321
5	54	n/a	n/a	n/a	j	8	0.02000000000000001	1	j	1	0.6530298287980258
5	55	n/a	n/a	n/a	j	8	0.01000000000000001	2	j	1	0.5695153152337298
5	56	n/a	n/a	n/a	f	8	0.02000000000000001	1	f	1	0.5733692785724998
5	57	n/a	n/a	n/a	j	8	0.01000000000000001	0	j	1	0.6174104606034234
5	58	n/a	n/a	n/a	j	8	0.02000000000000001	2	j	1	0.5938516198657453
5	59	n/a	n/a	n/a	j	8	0.03000000000000001	1	j	1	0.6208818214945495
5	60	n/a	n/a	n/a	j	8	0.02000000000000001	2	j	1	0.5717938235029578
5	61	n/a	n/a	n/a	j	8	0.03000000000000001	1	j	1	0.5794971885625273
5	62	n/a	n/a	n/a	f	8	0.02000000000000001	1	f	1	0.6238505536457524
5	63	n/a	n/a	n/a	j	8	0.01000000000000001	2	j	1	0.6094570638379082
5	64	n/a	n/a	n/a	j	8	0.02000000000000001	2	j	1	0.5615633439738303
5	65	n/a	n/a	n/a	j	8	0.03000000000000001	1	j	1	0.6091266345465556
5	66	n/a	n/a	n/a	j	8	0.02000000000000001	1	f	0	0.6585872563300654
5	67	n/a	n/a	n/a	j	8	0.03000000000000001	2	j	1	0.5966002558125183
5	68	n/a	n/a	n/a	f	8	0.04000000000000001	2	j	0	0.5880433053243905
5	69	n/a	n/a	n/a	j	8	0.03000000000000001	2	f	0	0.633931071148254
5	70	n/a	n/a	n/a	j	8	0.02000000000000001	2	j	1	0.9772807748522609
5	71	n/a	n/a	n/a	j	8	0.03000000000000001	2	j	1	0.7163163089426234
6	0	f	1	1.310143695329316	f	11	0.1	0	f	1	1.040674167103134
6	1	n/a	n/a	n/a	f	11	0.11	1	f	1	0.9824245244963095
6	2	n/a	n/a	n/a	j	11	0.1	1	j	1	0.9989950272720307
6	3	n/a	n/a	n/a	f	11	0.09000000000000001	1	f	1	1.008307774201967
6	4	n/a	n/a	n/a	f	11	0.08000000000000002	1	f	1	0.9877932168310508
6	5	n/a	n/a	n/a	f	11	0.07000000000000002	1	f	1	0.9901689437683672
6	6	n/a	n/a	n/a	f	11	0.06000000000000002	1	f	1	0.973647762904875
6	7	n/a	n/a	n/a	f	11	0.05000000000000002	1	f	1	0.9625394648173824
6	8	n/a	n/a	n/a	j	11	0.04000000000000001	1	j	1	0.967937522334978
6	9	n/a	n/a	n/a	f	11	0.03000000000000001	1	f	1	0.9789503123611212
6	10	n/a	n/a	n/a	f	11	0.02000000000000001	1	f	1	0.956637067720294
6	11	n/a	n/a	n/a	f	11	0.01000000000000001	0	f	1	0.9417352471500635
6	12	n/a	n/a	n/a	f	11	0.02000000000000001	0	j	0	1.015523905865848
6	13	n/a	n/a	n/a	f	11	0.03000000000000001	2	f	1	1.231343858060427
6	14	n/a	n/a	n/a	j	11	0.04000000000000001	2	j	1	0.8556365995900705
6	15	n/a	n/a	n/a	f	11	0.05000000000000002	0	f	1	0.938635369646363
6	16	n/a	n/a	n/a	f	11	0.06000000000000002	1	f	1	0.9817171946633607
6	17	n/a	n/a	n/a	f	11	0.05000000000000002	1	f	1	0.9486477486789227
6	18	n/a	n/a	n/a	f	11	0.04000000000000001	1	f	1	0.9036047301487997
6	19	n/a	n/a	n/a	f	11	0.03000000000000001	0	f	1	0.9169815580826253
6	20	n/a	n/a	n/a	j	11	0.04000000000000001	0	j	1	0.9510708019370213
6	21	n/a	n/a	n/a	f	11	0.05000000000000002	1	f	1	0.9419710236834362
6	22	n/a	n/a	n/a	f	11	0.04000000000000001	1	f	1	0.9319962776498869
6	23	n/a	n/a	n/a	f	11	0.03000000000000001	0	f	1	0.9471276027616113
6	24	n/a	n/a	n/a	f	11	0.04000000000000001	0	f	1	0.9230855198111385
6	25	n/a	n/a	n/a	f	11	0.05000000000000002	0	f	1	0.9886544997571036
6	26	n/a	n/a	n/a	j	11	0.06000000000000002	1	j	1	0.9955350701930001
6	27	n/a	n/a	n/a	f	11	0.05000000000000002	1	f	1	0.9015771086560562
6	28	n/a	n/a	n/a	f	11	0.04000000000000001	0	f	1	0.912882695090957
6	29	n/a	n/a	n/a	f	11	0.05000000000000002	0	f	1	0.9696857471717522
6	30	n/a	n/a	n/a	f	11	0.06000000000000002	1	f	1	0.9887642627581954
6	31	n/a	n/a	n/a	f	11	0.05000000000000002	1	f	1	0.9696244510123506
6	32	n/a	n/a	n/a	j	11	0.04000000000000001	1	j	1	0.9213541159406304
6	33	n/a	n/a	n/a	f	11	0.03000000000000001	0	f	1	0.963808438857086
6	34	n/a	n/a	n/a	f	11	0.04000000000000001	1	f	1	0.9675572008127347
6	35	n/a	n/a	n/a	f	11	0.03000000000000001	1	f	1	1.034514896105975
6	36	n/a	n/a	n/a	f	11	0.02000000000000001	2	f	1	0.9704723343020305
6	37	n/a	n/a	n/a	f	11	0.03000000000000001	1	f	1	1.003398090600967
6	38	n/a	n/a	n/a	j	11	0.02000000000000001	2	j	1	0.9830397673649713
6	39	n/a	n/a	n/a	f	11	0.03000000000000001	1	f	1	0.9542197164846584
6	40	n/a	n/a	n/a	f	11	0.02000000000000001	0	f	1	1.001801538281143
6	41	n/a	n/a	n/a	f	11	0.03000000000000001	1	f	1	1.0111618967494
6	42	n/a	n/a	n/a	f	11	0.02000000000000001	2	f	1	0.9956052044872195
6	43	n/a	n/a	n/a	f	11	0.03000000000000001	1	f	1	0.9915927263209596
6	44	n/a	n/a	n/a	j	11	0.02000000000000001	1	j	1	1.02919980220031
6	45	n/a	n/a	n/a	f	11	0.01000000000000001	2	f	1	0.9724931134842336
6	46	n/a	n/a	n/a	f	11	0.02000000000000001	1	f	1	0.9334451491013169
6	47	n/a	n/a	n/a	f	11	0.01000000000000001	0	f	1	0.983831201097928
6	48	n/a	n/a	n/a	f	11	0.02000000000000001	1	f	1	0.9767630357528105
6	49	n/a	n/a	n/a	f	11	0.01000000000000001	0	f	1	0.9707109618466347
6	50	n/a	n/a	n/a	j	11	0.02000000000000001	1	j	1	0.983672401169315
6	51	n/a	n/a	n/a	f	11	0.01000000000000001	1	f	1	0.9637491382891312
6	52	n/a	n/a	n/a	f	11	1.040834085586084e-17	0	f	1	1.005092717008665
6	53	n/a	n/a	n/a	f	11	0.01000000000000001	2	f	1	1.004642831278034
6	54	n/a	n/a	n/a	f	11	0.02000000000000001	2	f	1	0.9180834643775597
6	55	n/a	n/a	n/a	f	11	0.03000000000000001	0	f	1	1.017377617186867
6	56	n/a	n/a	n/a	j	11	0.04000000000000001	1	j	1	1.018318727728911
6	57	n/a	n/a	n/a	f	11	0.03000000000000001	1	f	1	0.9513268205337226
6	58	n/a	n/a	n/a	f	11	0.02000000000000001	0	f	1	0.9691765611059964
6	59	n/a	n/a	n/a	f	11	0.03000000000000001	1	f	1	0.9729124936275184
6	60	n/a	n/a	n/a	f	11	0.02000000000000001	1	f	1	0.9510311733465642
6	61	n/a	n/a	n/a	f	11	0.01000000000000001	0	f	1	1.023830539663322
6	62	n/a	n/a	n/a	j	11	0.02000000000000001	2	j	1	0.9639529838459566
6	63	n/a	n/a	n/a	f	11	0.03000000000000001	1	f	1	0.9774598167277873
6	64	n/a	n/a	n/a	f	11	0.02000000000000001	1	f	1	1.031868895632215
6	65	n/a	n/a	n/a	f	11	0.01000000000000001	2	f	1	0.9826263743452728
6	66	n/a	n/a	n/a	f	11	0.02000000000000001	2	j	0	0.9503794377669692
6	67	n/a	n/a	n/a	f	11	0.01000000000000001	0	f	1	0.9978523519821465
6	68	n/a	n/a	n/a	j	11	0.02000000000000001	1	j	1	1.014375813654624
6	69	n/a	n/a	n/a	f	11	0.01000000000000001	2	f	1	1.00256446225103
6	70	n/a	n/a	n/a	f	11	0.02000000000000001	1	f	1	1.017535846913233
6	71	n/a	n/a	n/a	f	11	0.01000000000000001	2	f	1	1.017110479646362
7	0	f	1	2.218884762609378	f	1	0.1	2	f	1	0.3800801013130695
7	1	n/a	n/a	n/a	j	1	0.11	1	j	1	0.4117357432842255
7	2	n/a	n/a	n/a	f	1	0.1	1	f	1	0.35199275391642
7	3	n/a	n/a	n/a	f	1	0.09000000000000001	1	f	1	0.425023905467242
7	4	n/a	n/a	n/a	f	1	0.08000000000000002	1	f	1	0.3925885189091787
7	5	n/a	n/a	n/a	j	1	0.07000000000000002	1	j	1	0.4169430697802454
7	6	n/a	n/a	n/a	f	1	0.06000000000000002	1	f	1	0.352943557780236
7	7	n/a	n/a	n/a	f	1	0.05000000000000002	1	f	1	0.4099399069091305
7	8	n/a	n/a	n/a	f	1	0.04000000000000001	1	f	1	0.3956353679532185
7	9	n/a	n/a	n/a	j	1	0.03000000000000001	1	j	1	0.3718866516137496
7	10	n/a	n/a	n/a	f	1	0.02000000000000001	1	f	1	0.4077084398595616
7	11	n/a	n/a	n/a	f	1	0.01000000000000001	2	f	1	0.4114001821726561
7	12	n/a	n/a	n/a	f	1	0.02000000000000001	2	f	1	0.3725717436755076
7	13	n/a	n/a	n/a	j	1	0.03000000000000001	1	j	1	0.4077685956144705
7	14	n/a	n/a	n/a	f	1	0.02000000000000001	2	f	1	0.3542863724287599
7	15	n/a	n/a	n/a	f	1	0.03000000000000001	0	f	1	0.4407468101708218
7	16	n/a	n/a	n/a	f	1	0.04000000000000001	2	f	1	0.4132151199737564
7	17	n/a	n/a	n/a	j	1	0.05000000000000002	1	j	1	0.4036722984164953
7	18	n/a	n/a	n/a	f	1	0.04000000000000001	1	f	1	0.4016569362720475
7	19	n/a	n/a	n/a	f	1	0.03000000000000001	1	f	1	0.4256422845646739
7	20	n/a	n/a	n/a	f	1	0.02000000000000001	2	f	1	0.3775937561877072
7	21	n/a	n/a	n/a	j	1	0.03000000000000001	1	j	1	0.4137870279373601
7	22	n/a	n/a	n/a	f	1	0.02000000000000001	2	f	1	0.4297360157361254
7	23	n/a	n/a	n/a	f	1	0.03000000000000001	2	f	1	0.3675286337966099
7	24	n/a	n/a	n/a	f	1	0.04000000000000001	1	f	1	0.3835232375422493
7	25	n/a	n/a	n/a	j	1	0.03000000000000001	1	j	1	0.3978668350027874
7	26	n/a	n/a	n/a	f	1	0.02000000000000001	1	f	1	0.3808646927354857
7	27	n/a	n/a	n/a	f	1	0.01000000000000001	1	f	1	0.3949785007862374
7	28	n/a	n/a	n/a	f	1	1.040834085586084e-17	2	f	1	0.3885811724467203
7	29	n/a	n/a	n/a	j	1	0.01000000000000001	1	j	1	0.3743798391660675
7	30	n/a	n/a	n/a	f	1	1.040834085586084e-17	0	f	1	0.4223881686339155
7	31	n/a	n/a	n/a	f	1	0.01000000000000001	2	f	1	0.4218148352811113
7	32	n/a	n/a	n/a	f	1	0.02000000000000001	2	f	1	0.3938315488630906
7	33	n/a	n/a	n/a	j	1	0.03000000000000001	1	j	1	0.3564382969634607
7	34	n/a	n/a	n/a	f	1	0.02000000000000001	0	f	1	0.4313927239272743
7	35	n/a	n/a	n/a	f	1	0.03000000000000001	2	f	1	0.3982343270909041
7	36	n/a	n/a	n/a	f	1	0.04000000000000001	1	f	1	0.3431823507416993
7	37	n/a	n/a	n/a	j	1	0.03000000000000001	0	j	1	0.3752123272279277
7	38	n/a	n/a	n/a	f	1	0.04000000000000001	1	f	1	0.3995973836863413
7	39	n/a	n/a	n/a	f	1	0.03000000000000001	1	f	1	0.4078164922539145
7	40	n/a	n/a	n/a	f	1	0.02000000000000001	2	f	1	0.3958061420125887
7	41	n/a	n/a	n/a	j	1	0.03000000000000001	1	j	1	0.403133176965639
7	42	n/a	n/a	n/a	f	1	0.02000000000000001	1	f	1	0.4026889932574704
7	43	n/a	n/a	n/a	f	1	0.01000000000000001	2	f	1	0.4519141237251461
7	44	n/a	n/a	n/a	f	1	0.02000000000000001	2	f	1	0.3879781888099387
7	45	n/a	n/a	n/a	j	1	0.03000000000000001	1	j	1	0.2460566582158208
7	46	n/a	n/a	n/a	f	1	0.02000000000000001	0	f	1	0.7258049617521465
7	47	n/a	n/a	n/a	f	1	0.03000000000000001	2	f	1	0.4269611507188529
7	48	n/a	n/a	n/a	f	1	0.04000000000000001	2	f	1	0.4055117549141869
7	49	n/a	n/a	n/a	j	1	0.05000000000000002	1	j	1	0.4290708806365728
7	50	n/a	n/a	n/a	f	1	0.04000000000000001	2	f	1	0.405521733337082
7	51	n/a	n/a	n/a	f	1	0.05000000000000002	1	f	1	0.4188583624782041
7	52	n/a	n/a	n/a	f	1	0.04000000000000001	1	f	1	0.4123578284634277
7	53	n/a	n/a	n/a	j	1	0.03000000000000001	1	j	1	0.4049455489730462
7	54	n/a	n/a	n/a	f	1	0.02000000000000001	2	f	1	0.3676865785382688
7	55	n/a	n/a	n/a	f	1	0.03000000000000001	1	f	1	0.4327175773214549
7	56	n/a	n/a	n/a	f	1	0.02000000000000001	2	f	1	0.3962594488402829
7	57	n/a	n/a	n/a	j	1	0.03000000000000001	1	j	1	0.3916913134744391
7	58	n/a	n/a	n/a	f	1	0.02000000000000001	1	f	1	0.4475980155402794
7	59	n/a	n/a	n/a	f	1	0.01000000000000001	2	f	1	0.3890379004878923
7	60	n/a	n/a	n/a	f	1	0.02000000000000001	1	f	1	0.3902253361884505
7	61	n/a	n/a	n/a	j	1	0.01000000000000001	1	j	1	0.3996398634044454
7	62	n/a	n/a	n/a	f	1	1.040834085586084e-17	2	f	1	0.4145576494047418
7	63	n/a	n/a	n/a	f	1	0.01000000000000001	2	f	1	0.3445522497640923
7	64	n/a	n/a	n/a	f	1	0.02000000000000001	0	f	1	0.4486055540619418
7	65	n/a	n/a	n/a	j	1	0.03000000000000001	2	j	1	0.3855289064813405
7	66	n/a	n/a	n/a	f	1	0.04000000000000001	1	f	1	0.4490862303646281
7	67	n/a	n/a	n/a	f	1	0.03000000000000001	2	f	1	0.4004649388371035
7	68	n/a	n/a	n/a	f	1	0.04000000000000001	1	f	1	0.3523571100085974
7	69	n/a	n/a	n/a	j	1	0.03000000000000001	0	j	1	0.424415790126659
7	70	n/a	n/a	n/a	f	1	0.04000000000000001	2	f	1	0.3894102392951027
7	71	n/a	n/a	n/a	f	1	0.05000000000000002	1	f	1	0.396534283994697
8	0	f	1	2.393182379310019	f	7	0.1	0	f	1	0.5373644570354372
8	1	n/a	n/a	n/a	f	7	0.11	1	f	1	0.5141403221059591
8	2	n/a	n/a	n/a	j	7	0.1	1	j	1	0.5866956440731883
8	3	n/a	n/a	n/a	f	7	0.09000000000000001	1	f	1	0.5865875917952508
8	4	n/a	n/a	n/a	f	7	0.08000000000000002	1	f	1	0.5665933393174782
8	5	n/a	n/a	n/a	f	7	0.07000000000000002	1	f	1	0.6051765929441899
8	6	n/a	n/a	n/a	f	7	0.06000000000000002	1	f	1	0.5140938510885462
8	7	n/a	n/a	n/a	f	7	0.05000000000000002	0	f	1	0.5459034461528063
8	8	n/a	n/a	n/a	j	7	0.06000000000000002	1	j	1	0.5468770579900593
8	9	n/a	n/a	n/a	f	7	0.05000000000000002	1	f	1	0.5368720917031169
8	10	n/a	n/a	n/a	f	7	0.04000000000000001	0	f	1	0.506815567961894
8	11	n/a	n/a	n/a	f	7	0.05000000000000002	0	f	1	0.5650130375288427
8	12	n/a	n/a	n/a	f	7	0.06000000000000002	1	f	1	0.5843150705331936
8	13	n/a	n/a	n/a	f	7	0.05000000000000002	1	f	1	0.5479036981705576
8	14	n/a	n/a	n/a	j	7	0.04000000000000001	1	j	1	0.5283225537277758
8	15	n/a	n/a	n/a	f	7	0.03000000000000001	0	f	1	0.5481947839725763
8	16	n/a	n/a	n/a	f	7	0.04000000000000001	1	f	1	0.5592802742030472
8	17	n/a	n/a	n/a	f	7	0.03000000000000001	1	f	1	0.5213119782274589
8	18	n/a	n/a	n/a	f	7	0.02000000000000001	0	f	1	0.5722762104123831
8	19	n/a	n/a	n/a	f	7	0.03000000000000001	1	f	1	0.5545462113805115
8	20	n/a	n/a	n/a	j	7	0.02000000000000001	0	j	1	0.5521491019753739
8	21	n/a	n/a	n/a	f	7	0.03000000000000001	0	f	1	0.5625227009877563
8	22	n/a	n/a	n/a	f	7	0.04000000000000001	1	f	1	0.5954410447739065
8	23	n/a	n/a	n/a	f	7	0.03000000000000001	1	f	1	0.5259126150049269
8	24	n/a	n/a	n/a	f	7	0.02000000000000001	0	f	1	0.567276150570251
8	25	n/a	n/a	n/a	f	7	0.03000000000000001	1	f	1	0.5289740040898323
8	26	n/a	n/a	n/a	j	7	0.02000000000000001	0	j	1	0.5280003922525793
8	27	n/a	n/a	n/a	f	7	0.03000000000000001	0	f	1	0.593036237754859
8	28	n/a	n/a	n/a	f	7	0.04000000000000001	1	f	1	0.592912504915148
8	29	n/a	n/a	n/a	f	7	0.03000000000000001	1	f	1	0.5998315637698397
8	30	n/a	n/a	n/a	f	7	0.02000000000000001	1	j	0	0.5591745026176795
8	31	n/a	n/a	n/a	f	7	0.01000000000000001	0	f	1	0.6026985156349838
8	32	n/a	n/a	n/a	j	7	0.02000000000000001	1	j	1	0.5771642265608534
8	33	n/a	n/a	n/a	f	7	0.01000000000000001	1	f	1	0.5855461263563484
8	34	n/a	n/a	n/a	f	7	1.040834085586084e-17	2	f	1	0.5402356854174286
8	35	n/a	n/a	n/a	f	7	0.01000000000000001	0	f	1	0.5667424459243193
8	36	n/a	n/a	n/a	f	7	0.02000000000000001	1	f	1	0.6024821257451549
8	37	n/a	n/a	n/a	f	7	0.01000000000000001	2	f	1	0.5460984536912292
8	38	n/a	n/a	n/a	j	7	0.02000000000000001	0	j	1	0.5439234361983836
8	39	n/a	n/a	n/a	f	7	0.03000000000000001	0	f	1	0.5595191868487746
8	40	n/a	n/a	n/a	f	7	0.04000000000000001	1	f	1	0.5997363408096135
8	41	n/a	n/a	n/a	f	7	0.03000000000000001	1	f	1	0.554810497793369
8	42	n/a	n/a	n/a	f	7	0.02000000000000001	0	f	1	0.586373767699115
8	43	n/a	n/a	n/a	f	7	0.03000000000000001	1	f	1	0.5367643242934719
8	44	n/a	n/a	n/a	j	7	0.02000000000000001	0	j	1	0.5533405292080715
8	45	n/a	n/a	n/a	f	7	0.03000000000000001	0	f	1	0.5686714232433587
8	46	n/a	n/a	n/a	f	7	0.04000000000000001	1	f	1	0.628182627260685
8	47	n/a	n/a	n/a	f	7	0.03000000000000001	2	f	1	0.5916019065771252
8	48	n/a	n/a	n/a	f	7	0.04000000000000001	1	f	1	0.6715156242717057
8	49	n/a	n/a	n/a	f	7	0.03000000000000001	2	f	1	0.5190867835190147
8	50	n/a	n/a	n/a	j	7	0.04000000000000001	0	j	1	0.5330466381274164
8	51	n/a	n/a	n/a	f	7	0.05000000000000002	1	f	1	0.5821061262395233
8	52	n/a	n/a	n/a	f	7	0.04000000000000001	1	f	1	0.5236081626499072
8	53	n/a	n/a	n/a	f	7	0.03000000000000001	0	f	1	0.5872829472646117
8	54	n/a	n/a	n/a	f	7	0.04000000000000001	0	j	0	0.5644867453956977
8	55	n/a	n/a	n/a	f	7	0.03000000000000001	1	f	1	0.1123339942423627
8	56	n/a	n/a	n/a	j	7	0.02000000000000001	1	f	0	0.5023971092887223
8	57	n/a	n/a	n/a	f	7	0.03000000000000001	0	f	1	1.134345319354907
8	58	n/a	n/a	n/a	f	7	0.04000000000000001	2	f	1	0.6062422916293144
8	59	n/a	n/a	n/a	f	7	0.05000000000000002	1	f	1	0.5945894551696256
8	60	n/a	n/a	n/a	f	7	0.04000000000000001	1	f	1	0.5631581858033314
8	61	n/a	n/a	n/a	f	7	0.03000000000000001	1	f	1	0.5665765184676275
8	62	n/a	n/a	n/a	j	7	0.02000000000000001	1	j	1	0.5386177505133674
8	63	n/a	n/a	n/a	f	7	0.01000000000000001	0	f	1	0.5156028781784698
8	64	n/a	n/a	n/a	f	7	0.02000000000000001	0	f	1	0.5869921466801316
8	65	n/a	n/a	n/a	f	7	0.03000000000000001	1	f	1	0.5745110985590145
8	66	n/a	n/a	n/a	f	7	0.02000000000000001	1	f	1	0.5765107803745195
8	67	n/a	n/a	n/a	f	7	0.01000000000000001	1	f	1	0.5564680612878874
8	68	n/a	n/a	n/a	j	7	1.040834085586084e-17	0	j	1	0.5485542932292446
8	69	n/a	n/a	n/a	f	7	0.01000000000000001	0	f	1	0.573875043541193
8	70	n/a	n/a	n/a	f	7	0.02000000000000001	1	f	1	0.6128195172641426
8	71	n/a	n/a	n/a	f	7	0.01000000000000001	2	f	1	0.5384962984826416
9	0	j	1	1.397907319013029	j	10	0.1	0	j	1	0.9896700211102143
9	1	n/a	n/a	n/a	f	10	0.11	1	f	1	0.9626016162801534
9	2	n/a	n/a	n/a	j	10	0.1	1	j	1	1.036488633952104
9	3	n/a	n/a	n/a	j	10	0.09000000000000001	1	j	1	0.8799520920729265
9	4	n/a	n/a	n/a	j	10	0.08000000000000002	0	j	1	0.9444020597729832
9	5	n/a	n/a	n/a	f	10	0.09000000000000001	1	f	1	0.9928092422196642
9	6	n/a	n/a	n/a	j	10	0.08000000000000002	1	f	0	0.9837490926729515
9	7	n/a	n/a	n/a	j	10	0.07000000000000002	1	j	1	0.951706571970135
9	8	n/a	n/a	n/a	j	10	0.06000000000000002	1	j	1	0.9916229468071833
9	9	n/a	n/a	n/a	f	10	0.05000000000000002	1	f	1	0.928252647514455
9	10	n/a	n/a	n/a	j	10	0.04000000000000001	0	j	1	0.9864997243275866
9	11	n/a	n/a	n/a	j	10	0.05000000000000002	1	j	1	0.9041706509888172
9	12	n/a	n/a	n/a	j	10	0.04000000000000001	0	j	1	0.9450817349134013
9	13	n/a	n/a	n/a	f	10	0.05000000000000002	1	f	1	1.002852411824279
9	14	n/a	n/a	n/a	j	10	0.04000000000000001	1	j	1	1.396449039573781
9	15	n/a	n/a	n/a	j	10	0.03000000000000001	2	j	1	0.803242597845383
9	16	n/a	n/a	n/a	j	10	0.04000000000000001	0	j	1	0.9413945543346927
9	17	n/a	n/a	n/a	f	10	0.05000000000000002	1	f	1	0.9486571570159867
9	18	n/a	n/a	n/a	j	10	0.04000000000000001	1	j	1	0.9610720621421933
9	19	n/a	n/a	n/a	j	10	0.03000000000000001	1	j	1	0.8900602641515434
9	20	n/a	n/a	n/a	j	10	0.02000000000000001	0	j	1	0.9458888490917161
9	21	n/a	n/a	n/a	f	10	0.03000000000000001	0	f	1	1.008923017070629
9	22	n/a	n/a	n/a	j	10	0.04000000000000001	1	j	1	0.912902366835624
9	23	n/a	n/a	n/a	j	10	0.03000000000000001	0	j	1	0.9323019034927711
9	24	n/a	n/a	n/a	j	10	0.04000000000000001	0	j	1	0.9275450326967984
9	25	n/a	n/a	n/a	f	10	0.05000000000000002	0	f	1	1.024704081821255
9	26	n/a	n/a	n/a	j	10	0.06000000000000002	1	j	1	0.9616676331497729
9	27	n/a	n/a	n/a	j	10	0.05000000000000002	1	j	1	0.8941508593270555
9	28	n/a	n/a	n/a	j	10	0.04000000000000001	0	j	1	0.8631728969048709
9	29	n/a	n/a	n/a	f	10	0.05000000000000002	0	f	1	0.9731194750638679
9	30	n/a	n/a	n/a	j	10	0.06000000000000002	1	j	1	0.9001045741606504
9	31	n/a	n/a	n/a	j	10	0.05000000000000002	0	j	1	0.8913931002607569
9	32	n/a	n/a	n/a	j	10	0.06000000000000002	0	j	1	0.8553075956879184
9	33	n/a	n/a	n/a	f	10	0.07000000000000002	0	f	1	1.009286517859437
9	34	n/a	n/a	n/a	j	10	0.08000000000000002	1	j	1	0.8937599890632555
9	35	n/a	n/a	n/a	j	10	0.07000000000000002	0	j	1	0.9661847359966487
9	36	n/a	n/a	n/a	j	10	0.08000000000000002	1	j	1	0.8850630552042276
9	37	n/a	n/a	n/a	f	10	0.07000000000000002	0	f	1	0.8852606286527589
9	38	n/a	n/a	n/a	j	10	0.08000000000000002	0	j	1	0.8860078721772879
9	39	n/a	n/a	n/a	j	10	0.09000000000000001	0	j	1	0.9659868774469942
9	40	n/a	n/a	n/a	j	10	0.1	1	j	1	0.9648969453992322
9	41	n/a	n/a	n/a	f	10	0.09000000000000001	1	f	1	0.8733888363931328
9	42	n/a	n/a	n/a	j	10	0.08000000000000002	0	j	1	0.8427820722572505
9	43	n/a	n/a	n/a	j	10	0.09000000000000001	0	j	1	0.9587553505552933
9	44	n/a	n/a	n/a	j	10	0.1	1	j	1	0.9791652768617496
9	45	n/a	n/a	n/a	f	10	0.09000000000000001	1	f	1	0.9421660311054438
9	46	n/a	n/a	n/a	j	10	0.08000000000000002	1	j	1	0.9573794645257294
9	47	n/a	n/a	n/a	j	10	0.07000000000000002	1	j	1	0.8936277034226805
9	48	n/a	n/a	n/a	j	10	0.06000000000000002	0	j	1	0.9390319419326261
9	49	n/a	n/a	n/a	f	10	0.07000000000000002	1	f	1	0.917158889467828
9	50	n/a	n/a	n/a	j	10	0.06000000000000002	0	j	1	0.9023790910141543
9	51	n/a	n/a	n/a	j	10	0.07000000000000002	0	j	1	0.9634027434512973
9	52	n/a	n/a	n/a	j	10	0.08000000000000002	1	j	1	0.9137733430834487
9	53	n/a	n/a	n/a	f	10	0.07000000000000002	0	f	1	0.9521718529285863
9	54	n/a	n/a	n/a	j	10	0.08000000000000002	1	j	1	0.905163649469614
9	55	n/a	n/a	n/a	j	10	0.07000000000000002	0	j	1	0.9390193975996226
9	56	n/a	n/a	n/a	j	10	0.08000000000000002	1	j	1	1.042988027562387
9	57	n/a	n/a	n/a	f	10	0.07000000000000002	1	f	1	0.9149804507615045
9	58	n/a	n/a	n/a	j	10	0.06000000000000002	0	j	1	0.9229404047364369
9	59	n/a	n/a	n/a	j	10	0.07000000000000002	1	j	1	0.9663825944298878
9	60	n/a	n/a	n/a	j	10	0.06000000000000002	1	j	1	1.003322824602947
9	61	n/a	n/a	n/a	f	10	0.05000000000000002	1	f	1	0.9227462525013834
9	62	n/a	n/a	n/a	j	10	0.04000000000000001	0	j	1	0.9542753106215969
9	63	n/a	n/a	n/a	j	10	0.05000000000000002	1	j	1	0.9807544166687876
9	64	n/a	n/a	n/a	j	10	0.04000000000000001	1	j	1	0.9080981698352844
9	65	n/a	n/a	n/a	f	10	0.03000000000000001	0	f	1	0.9007226680405438
9	66	n/a	n/a	n/a	j	10	0.04000000000000001	0	j	1	0.923888927907683
9	67	n/a	n/a	n/a	j	10	0.05000000000000002	0	j	1	1.04914986435324
9	68	n/a	n/a	n/a	j	10	0.06000000000000002	2	j	1	0.8929468877613544
9	69	n/a	n/a	n/a	f	10	0.07000000000000002	0	f	1	0.9663207279518247
9	70	n/a	n/a	n/a	j	10	0.08000000000000002	1	j	1	0.9032514928840101
9	71	n/a	n/a	n/a	j	10	0.07000000000000002	0	j	1	0.8627731886226684
10	0	j	1	1.947457176749595	j	2	0.1	2	j	1	0.4434093463933095
10	1	n/a	n/a	n/a	f	2	0.11	1	f	1	0.4013652803841978
10	2	n/a	n/a	n/a	j	2	0.1	1	j	1	0.432296201470308
10	3	n/a	n/a	n/a	j	2	0.09000000000000001	1	j	1	0.4467966032680124
10	4	n/a	n/a	n/a	j	2	0.08000000000000002	1	j	1	0.3734424348222092
10	5	n/a	n/a	n/a	f	2	0.07000000000000002	1	f	1	0.4369547131936997
10	6	n/a	n/a	n/a	j	2	0.06000000000000002	1	j	1	0.4121919010067359
10	7	n/a	n/a	n/a	j	2	0.05000000000000002	1	j	1	0.4213669453747571
10	8	n/a	n/a	n/a	j	2	0.04000000000000001	1	j	1	0.3861706635216251
10	9	n/a	n/a	n/a	f	2	0.03000000000000001	1	f	1	0.4216320869745687
10	10	n/a	n/a	n/a	j	2	0.02000000000000001	2	j	1	0.4146825227653608
10	11	n/a	n/a	n/a	j	2	0.03000000000000001	2	j	1	0.4096262984676287
10	12	n/a	n/a	n/a	j	2	0.04000000000000001	1	j	1	0.432617507642135
10	13	n/a	n/a	n/a	f	2	0.03000000000000001	2	f	1	0.3710478914435953
10	14	n/a	n/a	n/a	j	2	0.04000000000000001	1	j	1	0.466007404611446
10	15	n/a	n/a	n/a	j	2	0.03000000000000001	2	j	1	0.3699896052712575
10	16	n/a	n/a	n/a	j	2	0.04000000000000001	1	j	1	0.401969974511303
10	17	n/a	n/a	n/a	f	2	0.03000000000000001	1	f	1	0.3804359043715522
10	18	n/a	n/a	n/a	j	2	0.02000000000000001	1	j	1	0.4609682862646878
10	19	n/a	n/a	n/a	j	2	0.01000000000000001	2	j	1	0.3889096061466262
10	20	n/a	n/a	n/a	j	2	0.02000000000000001	1	j	1	0.389452148694545
10	21	n/a	n/a	n/a	f	2	0.01000000000000001	1	f	1	0.3833307959139347
10	22	n/a	n/a	n/a	j	2	1.040834085586084e-17	0	j	1	0.4477511134464294
10	23	n/a	n/a	n/a	j	2	0.01000000000000001	2	j	1	0.3917654390679672
10	24	n/a	n/a	n/a	j	2	0.02000000000000001	1	j	1	0.3843252200167626
10	25	n/a	n/a	n/a	f	2	0.01000000000000001	1	f	1	0.395266450359486
10	26	n/a	n/a	n/a	j	2	1.040834085586084e-17	2	j	1	0.4187383359530941
10	27	n/a	n/a	n/a	j	2	0.01000000000000001	2	j	1	0.3906740815145895
10	28	n/a	n/a	n/a	j	2	0.02000000000000001	1	j	1	0.3801927153253928
10	29	n/a	n/a	n/a	f	2	0.01000000000000001	1	f	1	0.4036129980813712
10	30	n/a	n/a	n/a	j	2	1.040834085586084e-17	2	j	1	0.4216366487089545
10	31	n/a	n/a	n/a	j	2	0.01000000000000001	2	j	1	0.4225957203889266
10	32	n/a	n/a	n/a	j	2	0.02000000000000001	2	j	1	0.3751165340654552
10	33	n/a	n/a	n/a	f	2	0.03000000000000001	1	f	1	0.3916146219708025
10	34	n/a	n/a	n/a	j	2	0.02000000000000001	1	j	1	0.3980544299120083
10	35	n/a	n/a	n/a	j	2	0.01000000000000001	2	j	1	0.3924767600838095
10	36	n/a	n/a	n/a	j	2	0.02000000000000001	1	j	1	0.3944596211658791
10	37	n/a	n/a	n/a	f	2	0.01000000000000001	2	f	1	0.4259975174209103
10	38	n/a	n/a	n/a	j	2	0.02000000000000001	2	j	1	0.3855468676192686
10	39	n/a	n/a	n/a	j	2	0.03000000000000001	1	j	1	0.4170477009611204
10	40	n/a	n/a	n/a	j	2	0.02000000000000001	2	j	1	0.375092870905064
10	41	n/a	n/a	n/a	f	2	0.03000000000000001	1	f	1	0.4555286042159423
10	42	n/a	n/a	n/a	j	2	0.02000000000000001	2	j	1	0.3908308858517557
10	43	n/a	n/a	n/a	j	2	0.03000000000000001	1	j	1	0.3739901094231755
10	44	n/a	n/a	n/a	j	2	0.02000000000000001	1	j	1	0.3912106370553374
10	45	n/a	n/a	n/a	f	2	0.01000000000000001	1	f	1	0.392254383303225
10	46	n/a	n/a	n/a	j	2	1.040834085586084e-17	2	j	1	0.3928502394119278
10	47	n/a	n/a	n/a	j	2	0.01000000000000001	1	j	1	0.4277662693057209
10	48	n/a	n/a	n/a	j	2	1.040834085586084e-17	2	j	1	0.3861056609312072
10	49	n/a	n/a	n/a	f	2	0.01000000000000001	1	f	1	0.4171657318947837
10	50	n/a	n/a	n/a	j	2	1.040834085586084e-17	2	j	1	0.3839907993096858
10	51	n/a	n/a	n/a	j	2	0.01000000000000001	1	j	1	0.3858584804693237
10	52	n/a	n/a	n/a	j	2	1.040834085586084e-17	0	j	1	0.4110848631244153
10	53	n/a	n/a	n/a	f	2	0.01000000000000001	2	f	1	0.4516079277964309
10	54	n/a	n/a	n/a	j	2	0.02000000000000001	2	j	1	0.3941876371391118
10	55	n/a	n/a	n/a	j	2	0.03000000000000001	1	j	1	0.4236177990678698
10	56	n/a	n/a	n/a	j	2	0.02000000000000001	2	j	1	0.3930301367072389
10	57	n/a	n/a	n/a	f	2	0.03000000000000001	1	f	1	0.4010342808905989
10	58	n/a	n/a	n/a	j	2	0.02000000000000001	1	j	1	0.3805316975340247
10	59	n/a	n/a	n/a	j	2	0.01000000000000001	1	j	1	0.4309314343845472
10	60	n/a	n/a	n/a	j	2	1.040834085586084e-17	2	j	1	0.3749218116281554
10	61	n/a	n/a	n/a	f	2	0.01000000000000001	0	f	1	0.4248728032689542
10	62	n/a	n/a	n/a	j	2	0.02000000000000001	2	j	1	0.4091279460117221
10	63	n/a	n/a	n/a	j	2	0.03000000000000001	1	j	1	0.4293460007756948
10	64	n/a	n/a	n/a	j	2	0.02000000000000001	2	j	1	0.3668073343578726
10	65	n/a	n/a	n/a	f	2	0.03000000000000001	1	f	1	0.4248197748092934
10	66	n/a	n/a	n/a	j	2	0.02000000000000001	2	j	1	0.4107892157044262
10	67	n/a	n/a	n/a	j	2	0.03000000000000001	1	j	1	0.4117605468491092
10	68	n/a	n/a	n/a	j	2	0.02000000000000001	2	j	1	0.396931141265668
10	69	n/a	n/a	n/a	f	2	0.03000000000000001	1	f	1	0.4373826462542638
10	70	n/a	n/a	n/a	j	2	0.02000000000000001	2	j	1	0.3916590972803533
10	71	n/a	n/a	n/a	j	2	0.03000000000000001	1	j	1	0.4166802088730037
11	0	f	1	1.531593775493093	f	3	0.1	1	f	1	0.4268853145185858
11	1	n/a	n/a	n/a	f	3	0.09000000000000001	1	f	1	0.37234052864369
11	2	n/a	n/a	n/a	j	3	0.08000000000000002	1	j	1	0.3747122641652822
11	3	n/a	n/a	n/a	f	3	0.07000000000000002	1	f	1	0.4498115213355049
11	4	n/a	n/a	n/a	f	3	0.06000000000000002	1	f	1	0.3987110120942816
11	5	n/a	n/a	n/a	f	3	0.05000000000000002	1	f	1	0.3427547027822584
11	6	n/a	n/a	n/a	f	3	0.04000000000000001	1	f	1	0.4022391077596694
11	7	n/a	n/a	n/a	f	3	0.03000000000000001	1	f	1	0.3700360764050856
11	8	n/a	n/a	n/a	j	3	0.02000000000000001	1	j	1	0.382142789894715
11	9	n/a	n/a	n/a	f	3	0.01000000000000001	1	f	1	0.416448708740063
11	10	n/a	n/a	n/a	f	3	1.040834085586084e-17	2	f	1	0.3712235122220591
11	11	n/a	n/a	n/a	f	3	0.01000000000000001	1	f	1	0.3737520520808175
11	12	n/a	n/a	n/a	f	3	1.040834085586084e-17	0	f	1	0.3995953879784793
11	13	n/a	n/a	n/a	f	3	0.01000000000000001	2	f	1	0.3820914721582085
11	14	n/a	n/a	n/a	j	3	0.02000000000000001	1	j	1	0.3585491672856733
11	15	n/a	n/a	n/a	f	3	0.01000000000000001	1	j	0	0.4224736981559545
11	16	n/a	n/a	n/a	f	3	0.02000000000000001	2	f	1	0.05643584521021694
11	17	n/a	n/a	n/a	f	3	0.03000000000000001	0	f	1	0.3361714902566746
11	18	n/a	n/a	n/a	f	3	0.04000000000000001	0	f	1	1.155462290276773
11	19	n/a	n/a	n/a	f	3	0.05000000000000002	2	f	1	0.4125305981142446
11	20	n/a	n/a	n/a	j	3	0.06000000000000002	1	j	1	0.43507192179095
11	21	n/a	n/a	n/a	f	3	0.05000000000000002	2	f	1	0.3963860326912254
11	22	n/a	n/a	n/a	f	3	0.06000000000000002	1	f	1	0.3894701099488884
11	23	n/a	n/a	n/a	f	3	0.05000000000000002	1	f	1	0.398837880929932
11	24	n/a	n/a	n/a	f	3	0.04000000000000001	1	f	1	0.373267954448238
11	25	n/a	n/a	n/a	f	3	0.03000000000000001	1	f	1	0.3678539313841611
11	26	n/a	n/a	n/a	j	3	0.02000000000000001	0	j	1	0.4102270011790097
11	27	n/a	n/a	n/a	f	3	0.03000000000000001	1	f	1	0.3787005089689046
11	28	n/a	n/a	n/a	f	3	0.02000000000000001	1	f	1	0.4031904818257317
11	29	n/a	n/a	n/a	f	3	0.01000000000000001	2	f	1	0.3906797835370526
11	30	n/a	n/a	n/a	f	3	0.02000000000000001	1	f	1	0.3906658136984333
11	31	n/a	n/a	n/a	f	3	0.01000000000000001	1	f	1	0.3670727611752227
11	32	n/a	n/a	n/a	j	3	1.040834085586084e-17	0	j	1	0.3780513394158334
11	33	n/a	n/a	n/a	f	3	0.01000000000000001	1	f	1	0.4110589190386236
11	34	n/a	n/a	n/a	f	3	1.040834085586084e-17	2	f	1	0.3939940552227199
11	35	n/a	n/a	n/a	f	3	0.01000000000000001	1	f	1	0.3527411378454417
11	36	n/a	n/a	n/a	f	3	1.040834085586084e-17	0	f	1	0.4315629277843982
11	37	n/a	n/a	n/a	f	3	0.01000000000000001	2	f	1	0.3704571671551093
11	38	n/a	n/a	n/a	j	3	0.02000000000000001	0	j	1	0.3799224417889491
11	39	n/a	n/a	n/a	f	3	0.03000000000000001	1	f	1	0.4395374218001962
11	40	n/a	n/a	n/a	f	3	0.02000000000000001	2	f	1	0.3698402136797085
11	41	n/a	n/a	n/a	f	3	0.03000000000000001	1	f	1	0.3768402404384688
11	42	n/a	n/a	n/a	f	3	0.02000000000000001	1	f	1	0.4177364992210642
11	43	n/a	n/a	n/a	f	3	0.01000000000000001	2	f	1	0.386801871820353
11	44	n/a	n/a	n/a	j	3	0.02000000000000001	1	j	1	0.4129496931564063
11	45	n/a	n/a	n/a	f	3	0.01000000000000001	2	f	1	0.3987680317368358
11	46	n/a	n/a	n/a	f	3	0.02000000000000001	1	f	1	0.4117294710595161
11	47	n/a	n/a	n/a	f	3	0.01000000000000001	2	f	1	0.3957388588460162
11	48	n/a	n/a	n/a	f	3	0.02000000000000001	1	f	1	0.405974755063653
11	49	n/a	n/a	n/a	f	3	0.01000000000000001	2	f	1	0.3972079720115289
11	50	n/a	n/a	n/a	j	3	0.02000000000000001	1	j	1	0.3826519760768861
11	51	n/a	n/a	n/a	f	3	0.01000000000000001	1	f	1	0.3879915884463117
11	52	n/a	n/a	n/a	f	3	1.040834085586084e-17	2	f	1	0.3967666394310072
11	53	n/a	n/a	n/a	f	3	0.01000000000000001	2	f	1	0.3925460391910747
11	54	n/a	n/a	n/a	f	3	0.02000000000000001	1	f	1	0.378539998549968
11	55	n/a	n/a	n/a	f	3	0.01000000000000001	1	f	1	0.4195043959189206
11	56	n/a	n/a	n/a	j	3	1.040834085586084e-17	2	j	1	0.3849986229324713
11	57	n/a	n/a	n/a	f	3	0.01000000000000001	1	f	1	0.3973083267919719
11	58	n/a	n/a	n/a	f	3	1.040834085586084e-17	2	f	1	0.4161302535794675
11	59	n/a	n/a	n/a	f	3	0.01000000000000001	2	f	1	0.3833547442918643
11	60	n/a	n/a	n/a	f	3	0.02000000000000001	1	f	1	0.4224369204603136
11	61	n/a	n/a	n/a	f	3	0.01000000000000001	2	f	1	0.3659771271049976
11	62	n/a	n/a	n/a	j	3	0.02000000000000001	1	j	1	0.3893526493338868
11	63	n/a	n/a	n/a	f	3	0.01000000000000001	1	f	1	0.397012394387275
11	64	n/a	n/a	n/a	f	3	1.040834085586084e-17	2	f	1	0.4028275512391701
11	65	n/a	n/a	n/a	f	3	0.01000000000000001	2	f	1	0.393290146603249
11	66	n/a	n/a	n/a	f	3	0.02000000000000001	1	f	1	0.4726641726447269
11	67	n/a	n/a	n/a	f	3	0.01000000000000001	2	f	1	0.3461639123270288
11	68	n/a	n/a	n/a	j	3	0.02000000000000001	0	j	1	0.4022356865461916
11	69	n/a	n/a	n/a	f	3	0.03000000000000001	1	f	1	0.399733945960179
11	70	n/a	n/a	n/a	f	3	0.02000000000000001	1	f	1	0.3940171480644494
11	71	n/a	n/a	n/a	f	3	0.01000000000000001	1	f	1	0.4056973541155457
12	0	j	1	1.303099763346836	j	4	0.08000000000000003	1	j	1	0.415546371601522
12	1	n/a	n/a	n/a	j	4	0.07000000000000003	1	j	1	0.3493099757470191
12	2	n/a	n/a	n/a	f	4	0.06000000000000003	1	f	1	0.3791532455943525
12	3	n/a	n/a	n/a	j	4	0.05000000000000003	1	j	1	0.4112858575535938
12	4	n/a	n/a	n/a	j	4	0.04000000000000003	1	j	1	0.3912753545446321
12	5	n/a	n/a	n/a	j	4	0.03000000000000003	1	j	1	0.3632649837527424
12	6	n/a	n/a	n/a	j	4	0.02000000000000002	0	j	1	0.442837153444998
12	7	n/a	n/a	n/a	j	4	0.03000000000000003	2	j	1	0.3516024538548663
12	8	n/a	n/a	n/a	f	4	0.04000000000000003	1	f	1	0.391188399400562
12	9	n/a	n/a	n/a	j	4	0.03000000000000003	1	j	1	0.3900251969462261
12	10	n/a	n/a	n/a	j	4	0.02000000000000002	1	j	1	0.3898185006109998
12	11	n/a	n/a	n/a	j	4	0.01000000000000002	1	j	1	0.3732554101152346
12	12	n/a	n/a	n/a	j	4	2.42861286636753e-17	0	j	1	0.3802691217279062
12	13	n/a	n/a	n/a	j	4	0.01000000000000002	1	j	1	0.3560462862951681
12	14	n/a	n/a	n/a	f	4	2.42861286636753e-17	0	f	1	0.4056728356517851
12	15	n/a	n/a	n/a	j	4	0.01000000000000002	2	j	1	0.3972074019256979
12	16	n/a	n/a	n/a	j	4	0.02000000000000002	1	j	1	0.3881560903973877
12	17	n/a	n/a	n/a	j	4	0.01000000000000002	1	j	1	0.3675123832654208
12	18	n/a	n/a	n/a	j	4	2.42861286636753e-17	0	j	1	0.3865481340326369
12	19	n/a	n/a	n/a	j	4	0.01000000000000002	1	j	1	0.3744245996931568
12	20	n/a	n/a	n/a	f	4	2.42861286636753e-17	0	f	1	0.422437205677852
12	21	n/a	n/a	n/a	j	4	0.01000000000000002	2	j	1	0.3818916180171072
12	22	n/a	n/a	n/a	j	4	0.02000000000000002	1	j	1	0.3897432344965637
12	23	n/a	n/a	n/a	j	4	0.01000000000000002	1	j	1	0.3994879057863727
12	24	n/a	n/a	n/a	j	4	2.42861286636753e-17	2	j	1	0.3598306856583804
12	25	n/a	n/a	n/a	j	4	0.01000000000000002	0	j	1	0.3456820956198499
12	26	n/a	n/a	n/a	f	4	0.02000000000000002	0	f	1	0.4493776011513546
12	27	n/a	n/a	n/a	j	4	0.03000000000000003	2	j	1	0.4007115492131561
12	28	n/a	n/a	n/a	j	4	0.04000000000000003	1	j	1	0.3847414640476927
12	29	n/a	n/a	n/a	j	4	0.03000000000000003	1	j	1	0.3846479516942054
12	30	n/a	n/a	n/a	j	4	0.02000000000000002	1	j	1	0.3923025649273768
12	31	n/a	n/a	n/a	j	4	0.01000000000000002	1	j	1	0.3762218614574522
12	32	n/a	n/a	n/a	f	4	2.42861286636753e-17	0	f	1	0.4066339031560346
12	33	n/a	n/a	n/a	j	4	0.01000000000000002	2	j	1	0.4145918613066897
12	34	n/a	n/a	n/a	j	4	0.02000000000000002	2	j	1	0.376589638646692
12	35	n/a	n/a	n/a	j	4	0.03000000000000003	1	j	1	0.4047696430934593
12	36	n/a	n/a	n/a	j	4	0.02000000000000002	2	j	1	0.3886199458502233
12	37	n/a	n/a	n/a	j	4	0.03000000000000003	1	j	1	0.3665863829664886
12	38	n/a	n/a	n/a	f	4	0.02000000000000002	0	f	1	0.3944721654988825
12	39	n/a	n/a	n/a	j	4	0.03000000000000003	1	j	1	0.3716026933398098
12	40	n/a	n/a	n/a	j	4	0.02000000000000002	1	j	1	0.3634782375302166
12	41	n/a	n/a	n/a	j	4	0.01000000000000002	0	j	1	0.3865515552461147
12	42	n/a	n/a	n/a	j	4	0.02000000000000002	1	j	1	0.442424900829792
12	43	n/a	n/a	n/a	j	4	0.01000000000000002	2	j	1	0.3692263962002471
12	44	n/a	n/a	n/a	f	4	0.02000000000000002	1	f	1	0.4243576300796121
12	45	n/a	n/a	n/a	j	4	0.01000000000000002	2	j	1	0.3938192896312103
12	46	n/a	n/a	n/a	j	4	0.02000000000000002	1	j	1	0.4187853771727532
12	47	n/a	n/a	n/a	j	4	0.01000000000000002	2	j	1	0.3952690161531791
12	48	n/a	n/a	n/a	j	4	0.02000000000000002	1	j	1	0.3885740449186414
12	49	n/a	n/a	n/a	j	4	0.01000000000000002	1	j	1	0.4177350738318637
12	50	n/a	n/a	n/a	f	4	2.42861286636753e-17	2	f	1	0.4053888773778453
12	51	n/a	n/a	n/a	j	4	0.01000000000000002	2	j	1	0.3907182718394324
12	52	n/a	n/a	n/a	j	4	0.02000000000000002	1	j	1	0.384788790368475
12	53	n/a	n/a	n/a	j	4	0.01000000000000002	1	j	1	0.3972809572005644
12	54	n/a	n/a	n/a	j	4	2.42861286636753e-17	2	j	1	0.3812224915018305
12	55	n/a	n/a	n/a	j	4	0.01000000000000002	1	j	1	0.3820891913492233
12	56	n/a	n/a	n/a	f	4	2.42861286636753e-17	1	j	0	0.345066852751188
12	57	n/a	n/a	n/a	j	4	0.01000000000000002	0	j	1	0.5307011316763237
12	58	n/a	n/a	n/a	j	4	0.02000000000000002	2	j	1	0.3619920182973146
12	59	n/a	n/a	n/a	j	4	0.03000000000000003	1	j	1	0.4131831889972091
12	60	n/a	n/a	n/a	j	4	0.02000000000000002	2	j	1	0.4389595268294215
12	61	n/a	n/a	n/a	j	4	0.03000000000000003	2	j	1	0.422433499363251
12	62	n/a	n/a	n/a	f	4	0.04000000000000003	1	f	1	0.421910913544707
12	63	n/a	n/a	n/a	j	4	0.03000000000000003	2	j	1	0.426897288649343
12	64	n/a	n/a	n/a	j	4	0.04000000000000003	2	j	1	0.4023722487036139
12	65	n/a	n/a	n/a	j	4	0.05000000000000003	1	j	1	0.4098677770234644
12	66	n/a	n/a	n/a	j	4	0.04000000000000003	1	j	1	0.3903898381395265
12	67	n/a	n/a	n/a	j	4	0.03000000000000003	1	j	1	0.4032979640178382
12	68	n/a	n/a	n/a	f	4	0.02000000000000002	1	f	1	0.4049107669852674
12	69	n/a	n/a	n/a	j	4	0.01000000000000002	2	j	1	0.4093702798709273
12	70	n/a	n/a	n/a	j	4	0.02000000000000002	2	j	1	0.3687112230109051
12	71	n/a	n/a	n/a	j	4	0.03000000000000003	1	j	1	0.4007497522979975
13	0	f	1	0.7693563441280276	f	5	0.02000000000000001	0	f	1	0.5674557626480237
13	1	n/a	n/a	n/a	j	5	0.03000000000000001	1	j	1	0.5896313047269359
13	2	n/a	n/a	n/a	f	5	0.02000000000000001	1	f	1	0.5657186566386372
13	3	n/a	n/a	n/a	f	5	0.01000000000000001	0	f	1	0.5177165993954986
13	4	n/a	n/a	n/a	f	5	0.02000000000000001	0	f	1	0.5744845845038071
13	5	n/a	n/a	n/a	j	5	0.03000000000000001	1	j	1	0.5509588151471689
13	6	n/a	n/a	n/a	f	5	0.02000000000000001	0	f	1	0.5859982928959653
13	7	n/a	n/a	n/a	f	5	0.03000000000000001	1	f	1	0.589342784951441
13	8	n/a	n/a	n/a	f	5	0.02000000000000001	1	f	1	0.5673582588788122
13	9	n/a	n/a	n/a	j	5	0.01000000000000001	0	j	1	0.5752392405411229
13	10	n/a	n/a	n/a	f	5	0.02000000000000001	1	f	1	0.557965399348177
13	11	n/a	n/a	n/a	f	5	0.01000000000000001	0	f	1	0.5582952584372833
13	12	n/a	n/a	n/a	f	5	0.02000000000000001	0	f	1	0.5581832146272063
13	13	n/a	n/a	n/a	j	5	0.03000000000000001	1	j	1	0.5392027730122209
13	14	n/a	n/a	n/a	f	5	0.02000000000000001	0	f	1	0.5951875920873135
13	15	n/a	n/a	n/a	f	5	0.03000000000000001	1	f	1	0.6111508348258212
13	16	n/a	n/a	n/a	f	5	0.02000000000000001	2	f	1	0.5460839136503637
13	17	n/a	n/a	n/a	j	5	0.03000000000000001	0	j	1	0.5260699895443395
13	18	n/a	n/a	n/a	f	5	0.04000000000000001	0	f	1	0.5250288092065603
13	19	n/a	n/a	n/a	f	5	0.05000000000000002	0	f	1	0.6075232397997752
13	20	n/a	n/a	n/a	f	5	0.06000000000000002	1	f	1	0.6559552258113399
13	21	n/a	n/a	n/a	j	5	0.05000000000000002	2	j	1	0.5369427960831672
13	22	n/a	n/a	n/a	f	5	0.06000000000000002	1	f	1	0.5479356292635202
13	23	n/a	n/a	n/a	f	5	0.05000000000000002	1	f	1	0.5570339820114896
13	24	n/a	n/a	n/a	f	5	0.04000000000000001	1	f	1	0.588617208879441
13	25	n/a	n/a	n/a	j	5	0.03000000000000001	1	j	1	0.511645138845779
13	26	n/a	n/a	n/a	f	5	0.02000000000000001	0	f	1	0.5747728190617636
13	27	n/a	n/a	n/a	f	5	0.03000000000000001	1	f	1	0.5627071597846225
13	28	n/a	n/a	n/a	f	5	0.02000000000000001	1	f	1	0.5728920234832913
13	29	n/a	n/a	n/a	j	5	0.01000000000000001	1	j	1	0.476814353489317
13	30	n/a	n/a	n/a	f	5	1.040834085586084e-17	0	f	1	0.5888327434659004
13	31	n/a	n/a	n/a	f	5	0.01000000000000001	1	f	1	0.522651371662505
13	32	n/a	n/a	n/a	f	5	1.040834085586084e-17	0	f	1	0.5714522752678022
13	33	n/a	n/a	n/a	j	5	0.01000000000000001	1	j	1	0.580736797535792
13	34	n/a	n/a	n/a	f	5	1.040834085586084e-17	2	f	1	0.54418401629664
13	35	n/a	n/a	n/a	f	5	0.01000000000000001	0	f	1	0.5764098555082455
13	36	n/a	n/a	n/a	f	5	0.02000000000000001	1	f	1	0.5139148090966046
13	37	n/a	n/a	n/a	j	5	0.01000000000000001	0	j	1	0.5850759986788034
13	38	n/a	n/a	n/a	f	5	0.02000000000000001	1	f	1	0.539896702975966
13	39	n/a	n/a	n/a	f	5	0.01000000000000001	0	f	1	0.5238821425009519
13	40	n/a	n/a	n/a	f	5	0.02000000000000001	0	f	1	0.5684992235619575
13	41	n/a	n/a	n/a	j	5	0.03000000000000001	1	j	1	0.5398319856030867
13	42	n/a	n/a	n/a	f	5	0.02000000000000001	0	f	1	0.493240311392583
13	43	n/a	n/a	n/a	f	5	0.03000000000000001	0	f	1	0.6481623398140073
13	44	n/a	n/a	n/a	f	5	0.04000000000000001	2	f	1	0.5541570517234504
13	45	n/a	n/a	n/a	j	5	0.05000000000000002	1	j	1	0.5617894273018464
13	46	n/a	n/a	n/a	f	5	0.04000000000000001	1	f	1	0.5531529342988506
13	47	n/a	n/a	n/a	f	5	0.03000000000000001	0	f	1	0.5626279023708776
13	48	n/a	n/a	n/a	f	5	0.04000000000000001	1	f	1	0.556666775024496
13	49	n/a	n/a	n/a	j	5	0.03000000000000001	1	j	1	0.5656670538010076
13	50	n/a	n/a	n/a	f	5	0.02000000000000001	1	f	1	0.5339891742914915
13	51	n/a	n/a	n/a	f	5	0.01000000000000001	0	f	1	0.5694982092827559
13	52	n/a	n/a	n/a	f	5	0.02000000000000001	1	f	1	0.5929353127721697
13	53	n/a	n/a	n/a	j	5	0.01000000000000001	1	j	1	0.5455228395294398
13	54	n/a	n/a	n/a	f	5	1.040834085586084e-17	0	f	1	0.5138013397809118
13	55	n/a	n/a	n/a	f	5	0.01000000000000001	0	f	1	0.587741956114769
13	56	n/a	n/a	n/a	f	5	0.02000000000000001	1	f	1	0.5507780626649037
13	57	n/a	n/a	n/a	j	5	0.01000000000000001	0	j	1	0.5422844041604549
13	58	n/a	n/a	n/a	f	5	0.02000000000000001	0	f	1	0.5328904041089118
13	59	n/a	n/a	n/a	f	5	0.03000000000000001	0	f	1	0.5302617946872488
13	60	n/a	n/a	n/a	f	5	0.04000000000000001	0	f	1	0.5637195450253785
13	61	n/a	n/a	n/a	j	5	0.05000000000000002	1	j	1	0.5186748158885166
13	62	n/a	n/a	n/a	f	5	0.04000000000000001	0	f	1	0.5277477948693559
13	63	n/a	n/a	n/a	f	5	0.05000000000000002	0	f	1	0.5913453177781776
13	64	n/a	n/a	n/a	f	5	0.06000000000000002	1	f	1	0.5365858526201919
13	65	n/a	n/a	n/a	j	5	0.05000000000000002	0	j	1	0.5303835317026824
13	66	n/a	n/a	n/a	f	5	0.06000000000000002	1	f	1	0.5660054659238085
13	67	n/a	n/a	n/a	f	5	0.05000000000000002	1	f	1	0.5414479246828705
13	68	n/a	n/a	n/a	f	5	0.04000000000000001	1	f	1	0.5815527498489246
13	69	n/a	n/a	n/a	j	5	0.03000000000000001	1	j	1	0.52555510122329
13	70	n/a	n/a	n/a	f	5	0.02000000000000001	0	f	1	0.5443596370751038
13	71	n/a	n/a	n/a	f	5	0.03000000000000001	0	f	1	0.6013557009864599
14	0	j	1	0.6360447923652828	j	6	0.02000000000000001	1	j	1	0.5898072106065229
14	1	n/a	n/a	n/a	f	6	0.01000000000000001	1	f	1	0.5742439611349255
14	2	n/a	n/a	n/a	j	6	1.040834085586084e-17	0	j	1	0.615524533088319
14	3	n/a	n/a	n/a	j	6	0.01000000000000001	2	j	1	0.5893382234498858
14	4	n/a	n/a	n/a	j	6	0.02000000000000001	1	j	1	0.6147085807751864
14	5	n/a	n/a	n/a	f	6	0.01000000000000001	1	j	0	0.5360969083849341
14	6	n/a	n/a	n/a	j	6	0.02000000000000001	0	j	1	0.5266387611627579
14	7	n/a	n/a	n/a	j	6	0.03000000000000001	0	j	1	0.5760677371872589
14	8	n/a	n/a	n/a	j	6	0.04000000000000001	1	j	1	0.6239970942260697
14	9	n/a	n/a	n/a	f	6	0.03000000000000001	2	f	1	0.5665001120651141
14	10	n/a	n/a	n/a	j	6	0.04000000000000001	1	j	1	0.5446071026381105
14	11	n/a	n/a	n/a	j	6	0.03000000000000001	0	j	1	0.558261331752874
14	12	n/a	n/a	n/a	j	6	0.04000000000000001	1	j	1	0.5708213520701975
14	13	n/a	n/a	n/a	f	6	0.03000000000000001	1	f	1	0.5608577249804512
14	14	n/a	n/a	n/a	j	6	0.02000000000000001	0	j	1	0.5237270487705246
14	15	n/a	n/a	n/a	j	6	0.03000000000000001	0	j	1	0.5840607625432312
14	16	n/a	n/a	n/a	j	6	0.04000000000000001	1	j	1	0.5479706963524222
14	17	n/a	n/a	n/a	f	6	0.03000000000000001	0	f	1	0.582705688662827
14	18	n/a	n/a	n/a	j	6	0.04000000000000001	1	j	1	0.5776990714948624
14	19	n/a	n/a	n/a	j	6	0.03000000000000001	1	j	1	0.5542368793394417
14	20	n/a	n/a	n/a	j	6	0.02000000000000001	0	j	1	0.5786128126783296
14	21	n/a	n/a	n/a	f	6	0.03000000000000001	1	f	1	0.5815159720368683
14	22	n/a	n/a	n/a	j	6	0.02000000000000001	1	j	1	0.5620152254123241
14	23	n/a	n/a	n/a	j	6	0.01000000000000001	0	j	1	0.5886673862114549
14	24	n/a	n/a	n/a	j	6	0.02000000000000001	1	j	1	0.5294632334262133
14	25	n/a	n/a	n/a	f	6	0.01000000000000001	0	f	1	0.5649106871569529
14	26	n/a	n/a	n/a	j	6	0.02000000000000001	1	j	1	0.532608441542834
14	27	n/a	n/a	n/a	j	6	0.01000000000000001	0	j	1	0.5570183015661314
14	28	n/a	n/a	n/a	j	6	0.02000000000000001	0	j	1	0.5530166572425514
14	29	n/a	n/a	n/a	f	6	0.03000000000000001	0	f	1	0.6012961154337972
14	30	n/a	n/a	n/a	j	6	0.04000000000000001	1	j	1	0.5679016568465158
14	31	n/a	n/a	n/a	j	6	0.03000000000000001	1	j	1	0.5662728884490207
14	32	n/a	n/a	n/a	j	6	0.02000000000000001	1	j	1	0.5702414615079761
14	33	n/a	n/a	n/a	f	6	0.01000000000000001	0	f	1	0.5970307547831908
14	34	n/a	n/a	n/a	j	6	0.02000000000000001	1	j	1	0.5371637475909665
14	35	n/a	n/a	n/a	j	6	0.01000000000000001	0	j	1	0.5937640945194289
14	36	n/a	n/a	n/a	j	6	0.02000000000000001	1	j	1	0.5530702557880431
14	37	n/a	n/a	n/a	f	6	0.01000000000000001	1	j	0	0.5850395060842857
14	38	n/a	n/a	n/a	j	6	0.02000000000000001	1	j	1	0.5616768132895231
14	39	n/a	n/a	n/a	j	6	0.01000000000000001	0	j	1	0.571010087383911
14	40	n/a	n/a	n/a	j	6	0.02000000000000001	1	j	1	0.6041479570558295
14	41	n/a	n/a	n/a	f	6	0.01000000000000001	2	f	1	0.5638660857221112
14	42	n/a	n/a	n/a	j	6	0.02000000000000001	1	j	1	0.5780118247494102
14	43	n/a	n/a	n/a	j	6	0.01000000000000001	0	j	1	0.5774724180810153
14	44	n/a	n/a	n/a	j	6	0.02000000000000001	1	j	1	0.5777897329535335
14	45	n/a	n/a	n/a	f	6	0.01000000000000001	1	f	1	0.5499395875958726
14	46	n/a	n/a	n/a	j	6	1.040834085586084e-17	0	j	1	0.5942564599681646
14	47	n/a	n/a	n/a	j	6	0.01000000000000001	1	j	1	0.6272409465163946
14	48	n/a	n/a	n/a	j	6	1.040834085586084e-17	2	j	1	0.4886362535180524
14	49	n/a	n/a	n/a	f	6	0.01000000000000001	0	f	1	0.5981936721364036
14	50	n/a	n/a	n/a	j	6	0.02000000000000001	1	j	1	0.5286489917198196
14	51	n/a	n/a	n/a	j	6	0.01000000000000001	0	j	1	0.5925914838444442
14	52	n/a	n/a	n/a	j	6	0.02000000000000001	1	j	1	0.5717710155295208
14	53	n/a	n/a	n/a	f	6	0.01000000000000001	0	f	1	0.5834800165612251
14	54	n/a	n/a	n/a	j	6	0.02000000000000001	1	j	1	0.5764263912569731
14	55	n/a	n/a	n/a	j	6	0.01000000000000001	1	j	1	0.5730790481902659
14	56	n/a	n/a	n/a	j	6	1.040834085586084e-17	0	j	1	0.6064013766590506
14	57	n/a	n/a	n/a	f	6	0.01000000000000001	2	f	1	0.5892276050290093
14	58	n/a	n/a	n/a	j	6	0.02000000000000001	1	j	1	0.588087210431695
14	59	n/a	n/a	n/a	j	6	0.01000000000000001	1	j	1	0.5432403398444876
14	60	n/a	n/a	n/a	j	6	1.040834085586084e-17	0	j	1	0.5557809735182673
14	61	n/a	n/a	n/a	f	6	0.01000000000000001	0	f	1	0.5702035432914272
14	62	n/a	n/a	n/a	j	6	0.02000000000000001	1	j	1	0.5541539156110957
14	63	n/a	n/a	n/a	j	6	0.01000000000000001	0	j	1	0.5812984417425469
14	64	n/a	n/a	n/a	j	6	0.02000000000000001	1	j	1	0.572317264508456
14	65	n/a	n/a	n/a	f	6	0.01000000000000001	0	f	1	0.5876381802372634
14	66	n/a	n/a	n/a	j	6	0.02000000000000001	1	j	1	0.5368852061219513
14	67	n/a	n/a	n/a	j	6	0.01000000000000001	0	j	1	0.5885427981847897
14	68	n/a	n/a	n/a	j	6	0.02000000000000001	1	j	1	0.5810179046820849
14	69	n/a	n/a	n/a	f	6	0.01000000000000001	1	f	1	0.5536609800765291
14	70	n/a	n/a	n/a	j	6	1.040834085586084e-17	0	j	1	0.5445620571263134
14	71	n/a	n/a	n/a	j	6	0.01000000000000001	0	j	1	0.6148653849959373
15	0	j	1	0.2263144329190254	j	12	0.04000000000000001	0	j	1	0.9703694137278944
15	1	n/a	n/a	n/a	j	12	0.05000000000000002	1	j	1	0.988269901718013
15	2	n/a	n/a	n/a	f	12	0.04000000000000001	1	f	1	0.9971726768417284
15	3	n/a	n/a	n/a	j	12	0.03000000000000001	1	j	1	0.9986988097662106
15	4	n/a	n/a	n/a	j	12	0.02000000000000001	1	j	1	0.9812735811574385
15	5	n/a	n/a	n/a	j	12	0.01000000000000001	1	j	1	1.007562811486423
15	6	n/a	n/a	n/a	j	12	1.040834085586084e-17	2	j	1	0.9134976527420804
15	7	n/a	n/a	n/a	j	12	0.01000000000000001	0	j	1	0.9224620092427358
15	8	n/a	n/a	n/a	f	12	0.02000000000000001	0	f	1	0.8888896490680054
15	9	n/a	n/a	n/a	j	12	0.03000000000000001	0	j	1	0.9874459666898474
15	10	n/a	n/a	n/a	j	12	0.04000000000000001	1	j	1	0.9782954409020022
15	11	n/a	n/a	n/a	j	12	0.03000000000000001	1	j	1	0.9603821233613417
15	12	n/a	n/a	n/a	j	12	0.02000000000000001	0	j	1	0.9122663118178025
15	13	n/a	n/a	n/a	j	12	0.03000000000000001	0	j	1	0.9066435964778066
15	14	n/a	n/a	n/a	f	12	0.04000000000000001	0	f	1	0.9689915319904685
15	15	n/a	n/a	n/a	j	12	0.05000000000000002	1	j	1	0.9714718901086599
15	16	n/a	n/a	n/a	j	12	0.04000000000000001	1	j	1	0.934014491038397
15	17	n/a	n/a	n/a	j	12	0.03000000000000001	0	j	1	0.9187514504883438
15	18	n/a	n/a	n/a	j	12	0.04000000000000001	0	j	1	0.967455135541968
15	19	n/a	n/a	n/a	j	12	0.05000000000000002	1	j	1	1.026885656639934
15	20	n/a	n/a	n/a	f	12	0.04000000000000001	1	f	1	0.8527437037555501
15	21	n/a	n/a	n/a	j	12	0.03000000000000001	0	j	1	0.9031574103282765
15	22	n/a	n/a	n/a	j	12	0.04000000000000001	0	j	1	0.9292353824712336
15	23	n/a	n/a	n/a	j	12	0.05000000000000002	0	j	1	0.9310352102620527
15	24	n/a	n/a	n/a	j	12	0.06000000000000002	1	j	1	0.997961544780992
15	25	n/a	n/a	n/a	j	12	0.05000000000000002	1	j	1	0.9255738608771935
15	26	n/a	n/a	n/a	f	12	0.04000000000000001	0	f	1	0.9605480508180335
15	27	n/a	n/a	n/a	j	12	0.05000000000000002	1	j	1	0.992820646148175
15	28	n/a	n/a	n/a	j	12	0.04000000000000001	1	j	1	0.8587649869732559
15	29	n/a	n/a	n/a	j	12	0.03000000000000001	0	j	1	0.9706479550804943
15	30	n/a	n/a	n/a	j	12	0.04000000000000001	1	j	1	0.9318366225343198
15	31	n/a	n/a	n/a	j	12	0.03000000000000001	0	j	1	0.8931498780148104
15	32	n/a	n/a	n/a	f	12	0.04000000000000001	0	f	1	0.9045515427133068
15	33	n/a	n/a	n/a	j	12	0.05000000000000002	0	j	1	0.9113953354535624
15	34	n/a	n/a	n/a	j	12	0.06000000000000002	0	j	1	0.9374222750775516
15	35	n/a	n/a	n/a	j	12	0.07000000000000002	1	j	1	0.9453525786520913
15	36	n/a	n/a	n/a	j	12	0.06000000000000002	1	j	1	1.00387477548793
15	37	n/a	n/a	n/a	j	12	0.05000000000000002	1	j	1	0.9312966456636786
15	38	n/a	n/a	n/a	f	12	0.04000000000000001	0	f	1	0.9438717763405293
15	39	n/a	n/a	n/a	j	12	0.05000000000000002	1	j	1	0.892705409321934
15	40	n/a	n/a	n/a	j	12	0.04000000000000001	0	j	1	0.9280171560822055
15	41	n/a	n/a	n/a	j	12	0.05000000000000002	0	j	1	0.9538810192607343
15	42	n/a	n/a	n/a	j	12	0.06000000000000002	1	j	1	0.9335121471667662
15	43	n/a	n/a	n/a	j	12	0.05000000000000002	0	j	1	0.9819201849168167
15	44	n/a	n/a	n/a	f	12	0.06000000000000002	1	f	1	0.9497348297154531
15	45	n/a	n/a	n/a	j	12	0.05000000000000002	1	j	1	0.9564272351562977
15	46	n/a	n/a	n/a	j	12	0.04000000000000001	1	j	1	0.9489778928691521
15	47	n/a	n/a	n/a	j	12	0.03000000000000001	0	j	1	0.9572625742293894
15	48	n/a	n/a	n/a	j	12	0.04000000000000001	1	j	1	0.9373472940642387
15	49	n/a	n/a	n/a	j	12	0.03000000000000001	0	j	1	0.9543648316757753
15	50	n/a	n/a	n/a	f	12	0.04000000000000001	1	f	1	0.9330691039795056
15	51	n/a	n/a	n/a	j	12	0.03000000000000001	0	j	1	0.967111021396704
15	52	n/a	n/a	n/a	j	12	0.04000000000000001	1	j	1	0.9391317263944075
15	53	n/a	n/a	n/a	j	12	0.03000000000000001	0	j	1	1.001977158943191
15	54	n/a	n/a	n/a	j	12	0.04000000000000001	1	j	1	0.9763593360548839
15	55	n/a	n/a	n/a	j	12	0.03000000000000001	1	j	1	1.314272778923623
15	56	n/a	n/a	n/a	f	12	0.02000000000000001	2	f	1	0.739202601951547
15	57	n/a	n/a	n/a	j	12	0.03000000000000001	0	j	1	0.8921457607066259
15	58	n/a	n/a	n/a	j	12	0.04000000000000001	0	j	1	0.887680830899626
15	59	n/a	n/a	n/a	j	12	0.05000000000000002	0	j	1	0.882078927825205
15	60	n/a	n/a	n/a	j	12	0.06000000000000002	0	j	1	0.930017123115249
15	61	n/a	n/a	n/a	j	12	0.07000000000000002	1	j	1	0.8970021307468414
15	62	n/a	n/a	n/a	f	12	0.06000000000000002	0	f	1	0.9457574187545106
15	63	n/a	n/a	n/a	j	12	0.07000000000000002	1	j	1	0.8788972269976512
15	64	n/a	n/a	n/a	j	12	0.06000000000000002	0	j	1	0.9143672036007047
15	65	n/a	n/a	n/a	j	12	0.07000000000000002	1	j	1	0.9339058684417978
15	66	n/a	n/a	n/a	j	12	0.06000000000000002	1	j	1	0.838717136066407
15	67	n/a	n/a	n/a	j	12	0.05000000000000002	0	j	1	0.8902153577655554
15	68	n/a	n/a	n/a	f	12	0.06000000000000002	0	f	1	0.8712474604835734
15	69	n/a	n/a	n/a	j	12	0.07000000000000002	0	j	1	0.9355357773602009
15	70	n/a	n/a	n/a	j	12	0.08000000000000002	1	j	1	0.9595214105211198
15	71	n/a	n/a	n/a	j	12	0.07000000000000002	1	j	1	0.9720038841478527
16	0	f	1	0.2286060558399186	f	9	0.02000000000000001	1	f	1	0.9978378120576963
16	1	n/a	n/a	n/a	j	9	0.01000000000000001	2	j	1	0.9523374951677397
16	2	n/a	n/a	n/a	f	9	0.02000000000000001	0	f	1	0.9297485601855442
16	3	n/a	n/a	n/a	f	9	0.03000000000000001	0	f	1	0.9697054190328345
16	4	n/a	n/a	n/a	f	9	0.04000000000000001	1	f	1	0.9411875726655126
16	5	n/a	n/a	n/a	j	9	0.03000000000000001	0	j	1	0.9722733023809269
16	6	n/a	n/a	n/a	f	9	0.04000000000000001	1	f	1	0.9276895778020844
16	7	n/a	n/a	n/a	f	9	0.03000000000000001	0	f	1	0.9166688049444929
16	8	n/a	n/a	n/a	f	9	0.04000000000000001	0	f	1	0.9573099004337564
16	9	n/a	n/a	n/a	j	9	0.05000000000000002	1	j	1	0.965211694361642
16	10	n/a	n/a	n/a	f	9	0.04000000000000001	1	f	1	0.9814782820176333
16	11	n/a	n/a	n/a	f	9	0.03000000000000001	1	f	1	0.9727736505446956
16	12	n/a	n/a	n/a	f	9	0.02000000000000001	1	f	1	0.9172047902829945
16	13	n/a	n/a	n/a	j	9	0.01000000000000001	0	j	1	0.9128196882084012
16	14	n/a	n/a	n/a	f	9	0.02000000000000001	0	f	1	0.9496487299911678
16	15	n/a	n/a	n/a	f	9	0.03000000000000001	0	f	1	0.9085779907181859
16	16	n/a	n/a	n/a	f	9	0.04000000000000001	0	f	1	0.9579624913167208
16	17	n/a	n/a	n/a	j	9	0.05000000000000002	1	j	1	0.9269266538321972
16	18	n/a	n/a	n/a	f	9	0.04000000000000001	0	f	1	0.9640339518664405
16	19	n/a	n/a	n/a	f	9	0.05000000000000002	1	f	1	0.9098010638263077
16	20	n/a	n/a	n/a	f	9	0.04000000000000001	0	f	1	0.941281370120123
16	21	n/a	n/a	n/a	j	9	0.05000000000000002	1	j	1	0.9089038585079834
16	22	n/a	n/a	n/a	f	9	0.04000000000000001	0	f	1	0.92583444097545
16	23	n/a	n/a	n/a	f	9	0.05000000000000002	0	f	1	1.014660912216641
16	24	n/a	n/a	n/a	f	9	0.06000000000000002	1	f	1	0.9177670049248263
16	25	n/a	n/a	n/a	j	9	0.05000000000000002	0	j	1	0.9260756343137473
16	26	n/a	n/a	n/a	f	9	0.06000000000000002	1	f	1	0.9909552457975224
16	27	n/a	n/a	n/a	f	9	0.05000000000000002	1	f	1	0.9978537774877623
16	28	n/a	n/a	n/a	f	9	0.04000000000000001	1	f	1	0.8773633963428438
16	29	n/a	n/a	n/a	j	9	0.03000000000000001	0	j	1	0.9422977467766032
16	30	n/a	n/a	n/a	f	9	0.04000000000000001	0	f	1	0.9972371091134846
16	31	n/a	n/a	n/a	f	9	0.05000000000000002	1	f	1	0.922683245735243
16	32	n/a	n/a	n/a	f	9	0.04000000000000001	0	f	1	0.9403037668671459
16	33	n/a	n/a	n/a	j	9	0.05000000000000002	1	j	1	0.9092684997012839
16	34	n/a	n/a	n/a	f	9	0.04000000000000001	0	f	1	0.9736035725800321
16	35	n/a	n/a	n/a	f	9	0.05000000000000002	1	f	1	0.9557518365327269
16	36	n/a	n/a	n/a	f	9	0.04000000000000001	1	f	1	1.026917872834019
16	37	n/a	n/a	n/a	j	9	0.03000000000000001	2	j	1	0.9227918683318421
16	38	n/a	n/a	n/a	f	9	0.04000000000000001	0	f	1	0.9284028945257887
16	39	n/a	n/a	n/a	f	9	0.05000000000000002	0	f	1	0.8957488372689113
16	40	n/a	n/a	n/a	f	9	0.06000000000000002	0	f	1	0.9136752692284063
16	41	n/a	n/a	n/a	j	9	0.07000000000000002	0	j	1	0.9595231211278588
16	42	n/a	n/a	n/a	f	9	0.08000000000000002	1	f	1	0.9895708068506792
16	43	n/a	n/a	n/a	f	9	0.07000000000000002	1	f	1	0.9585349693661556
16	44	n/a	n/a	n/a	f	9	0.06000000000000002	1	f	1	0.8624946472700685
16	45	n/a	n/a	n/a	j	9	0.05000000000000002	0	j	1	0.927419874467887
16	46	n/a	n/a	n/a	f	9	0.06000000000000002	1	f	1	0.838367604999803
16	47	n/a	n/a	n/a	f	9	0.05000000000000002	0	f	1	0.9428824840579182
16	48	n/a	n/a	n/a	f	9	0.06000000000000002	1	f	1	0.9742105476325378
16	49	n/a	n/a	n/a	j	9	0.05000000000000002	1	j	1	0.9697285119909793
16	50	n/a	n/a	n/a	f	9	0.04000000000000001	1	f	1	0.9130816938122734
16	51	n/a	n/a	n/a	f	9	0.03000000000000001	0	f	1	0.9666055415291339
16	52	n/a	n/a	n/a	f	9	0.04000000000000001	1	f	1	0.8900266225682572
16	53	n/a	n/a	n/a	j	9	0.03000000000000001	0	j	1	0.9789811031660065
16	54	n/a	n/a	n/a	f	9	0.04000000000000001	1	f	1	0.9204845650820062
16	55	n/a	n/a	n/a	f	9	0.03000000000000001	0	f	1	0.9459190695779398
16	56	n/a	n/a	n/a	f	9	0.04000000000000001	1	f	1	0.9258632359560579
16	57	n/a	n/a	n/a	j	9	0.03000000000000001	0	j	1	0.981779346242547
16	58	n/a	n/a	n/a	f	9	0.04000000000000001	1	f	1	0.813898729509674
16	59	n/a	n/a	n/a	f	9	0.03000000000000001	0	f	1	0.9106332667870447
16	60	n/a	n/a	n/a	f	9	0.04000000000000001	0	f	1	0.9957913738908246
16	61	n/a	n/a	n/a	j	9	0.05000000000000002	1	j	1	0.8617491143522784
16	62	n/a	n/a	n/a	f	9	0.04000000000000001	0	f	1	0.9021783815696836
16	63	n/a	n/a	n/a	f	9	0.05000000000000002	0	f	1	0.9565609464189038
16	64	n/a	n/a	n/a	f	9	0.06000000000000002	1	f	1	0.9733811956830323
16	65	n/a	n/a	n/a	j	9	0.05000000000000002	1	j	1	1.36134028295055
16	66	n/a	n/a	n/a	f	9	0.04000000000000001	2	f	1	0.7650524951750413
16	67	n/a	n/a	n/a	f	9	0.05000000000000002	0	f	1	0.8242238616803661
16	68	n/a	n/a	n/a	f	9	0.06000000000000002	0	f	1	0.9396674267482013
16	69	n/a	n/a	n/a	j	9	0.07000000000000002	1	j	1	0.8640863529872149
16	70	n/a	n/a	n/a	f	9	0.06000000000000002	0	f	1	0.8651030147448182
16	71	n/a	n/a	n/a	f	9	0.07000000000000002	0	f	1	0.9849995352560654
17	0	j	1	0.3516155683901161	j	8	0.04000000000000001	2	j	1	0.6639203114900738
17	1	n/a	n/a	n/a	j	8	0.05000000000000002	2	j	1	0.5913185185054317
17	2	n/a	n/a	n/a	f	8	0.06000000000000002	1	f	1	0.5896811969578266
17	3	n/a	n/a	n/a	j	8	0.05000000000000002	1	j	1	0.5657810933189467
17	4	n/a	n/a	n/a	j	8	0.04000000000000001	1	j	1	0.5582157158059999
17	5	n/a	n/a	n/a	j	8	0.03000000000000001	1	j	1	0.5337112030247226
17	6	n/a	n/a	n/a	j	8	0.02000000000000001	0	j	1	0.6057978228200227
17	7	n/a	n/a	n/a	j	8	0.03000000000000001	1	j	1	0.5836430930066854
17	8	n/a	n/a	n/a	f	8	0.02000000000000001	1	f	1	0.6065932480851188
17	9	n/a	n/a	n/a	j	8	0.01000000000000001	2	j	1	0.5640693610766903
17	10	n/a	n/a	n/a	j	8	0.02000000000000001	0	j	1	0.5555038576712832
17	11	n/a	n/a	n/a	j	8	0.03000000000000001	1	j	1	0.6027464121580124
17	12	n/a	n/a	n/a	j	8	0.02000000000000001	1	j	1	0.5649657112080604
17	13	n/a	n/a	n/a	j	8	0.01000000000000001	0	j	1	0.5174577297875658
17	14	n/a	n/a	n/a	f	8	0.02000000000000001	0	f	1	0.5655863708816469
17	15	n/a	n/a	n/a	j	8	0.03000000000000001	1	j	1	0.6281395773403347
17	16	n/a	n/a	n/a	j	8	0.02000000000000001	2	j	1	0.5742961341748014
17	17	n/a	n/a	n/a	j	8	0.03000000000000001	1	j	1	0.6094211414456367
17	18	n/a	n/a	n/a	j	8	0.02000000000000001	2	j	1	0.600277172983624
17	19	n/a	n/a	n/a	j	8	0.03000000000000001	1	j	1	0.5452060949755833
17	20	n/a	n/a	n/a	f	8	0.02000000000000001	0	f	1	0.5649431884521618
17	21	n/a	n/a	n/a	j	8	0.03000000000000001	1	j	1	0.6088344084564596
17	22	n/a	n/a	n/a	j	8	0.02000000000000001	2	j	1	0.5580044578528032
17	23	n/a	n/a	n/a	j	8	0.03000000000000001	1	j	1	0.5911112517351285
17	24	n/a	n/a	n/a	j	8	0.02000000000000001	1	j	1	0.5435932920081541
17	25	n/a	n/a	n/a	j	8	0.01000000000000001	0	j	1	0.5555745621677488
17	26	n/a	n/a	n/a	f	8	0.02000000000000001	0	f	1	0.5799647504463792
17	27	n/a	n/a	n/a	j	8	0.03000000000000001	1	j	1	0.6186423717299476
17	28	n/a	n/a	n/a	j	8	0.02000000000000001	2	j	1	0.5698674119776115
17	29	n/a	n/a	n/a	j	8	0.03000000000000001	1	j	1	0.5374442846514285
17	30	n/a	n/a	n/a	j	8	0.02000000000000001	0	j	1	0.5965677545173094
17	31	n/a	n/a	n/a	j	8	0.03000000000000001	1	j	1	0.5767759222071618
17	32	n/a	n/a	n/a	f	8	0.02000000000000001	1	f	1	0.5809765653684735
17	33	n/a	n/a	n/a	j	8	0.01000000000000001	1	j	1	0.574298985186033
17	34	n/a	n/a	n/a	j	8	1.040834085586084e-17	0	j	1	0.5582704547559842
17	35	n/a	n/a	n/a	j	8	0.01000000000000001	0	j	1	0.6346557919168845
17	36	n/a	n/a	n/a	j	8	0.02000000000000001	2	j	1	0.5718471369473264
17	37	n/a	n/a	n/a	j	8	0.03000000000000001	1	j	1	0.5332596068037674
17	38	n/a	n/a	n/a	f	8	0.02000000000000001	0	f	1	0.5901661497773603
17	39	n/a	n/a	n/a	j	8	0.03000000000000001	1	j	1	0.5806948880199343
17	40	n/a	n/a	n/a	j	8	0.02000000000000001	1	j	1	0.5655664140358567
17	41	n/a	n/a	n/a	j	8	0.01000000000000001	0	j	1	0.6025103505235165
17	42	n/a	n/a	n/a	j	8	0.02000000000000001	1	j	1	0.593428818625398
17	43	n/a	n/a	n/a	j	8	0.01000000000000001	1	j	1	0.5953489579260349
17	44	n/a	n/a	n/a	f	8	1.040834085586084e-17	2	f	1	0.595331851975061
17	45	n/a	n/a	n/a	j	8	0.01000000000000001	1	j	1	0.5826942847343162
17	46	n/a	n/a	n/a	j	8	1.040834085586084e-17	0	j	1	2.538273066282272
17	47	n/a	n/a	n/a	j	8	0.01000000000000001	2	j	1	0.5719554744428024
17	48	n/a	n/a	n/a	j	8	0.02000000000000001	1	j	1	0.5750867127208039
17	49	n/a	n/a	n/a	j	8	0.01000000000000001	1	j	1	0.5430729869985953
17	50	n/a	n/a	n/a	f	8	1.040834085586084e-17	0	f	1	0.5510583146242425
17	51	n/a	n/a	n/a	j	8	0.01000000000000001	0	j	1	0.5731563098961487
17	52	n/a	n/a	n/a	j	8	0.02000000000000001	1	j	1	0.5651932199252769
17	53	n/a	n/a	n/a	j	8	0.01000000000000001	0	j	1	0.5455681702587754
17	54	n/a	n/a	n/a	j	8	0.02000000000000001	0	j	1	0.5628713765181601
17	55	n/a	n/a	n/a	j	8	0.03000000000000001	1	j	1	0.5777971454663202
17	56	n/a	n/a	n/a	f	8	0.02000000000000001	1	f	1	0.5868607161100954
17	57	n/a	n/a	n/a	j	8	0.01000000000000001	1	j	1	0.5497930468991399
17	58	n/a	n/a	n/a	j	8	1.040834085586084e-17	0	j	1	0.5783077571541071
17	59	n/a	n/a	n/a	j	8	0.01000000000000001	1	j	1	0.584768662462011
17	60	n/a	n/a	n/a	j	8	1.040834085586084e-17	0	j	1	0.5787550769746304
17	61	n/a	n/a	n/a	j	8	0.01000000000000001	1	j	1	0.5992374181514606
17	62	n/a	n/a	n/a	f	8	1.040834085586084e-17	2	f	1	0.5337003692984581
17	63	n/a	n/a	n/a	j	8	0.01000000000000001	0	j	1	0.5906225927174091
17	64	n/a	n/a	n/a	j	8	0.02000000000000001	1	j	1	0.5661896396195516
17	65	n/a	n/a	n/a	j	8	0.01000000000000001	0	j	1	0.6057502113981172
17	66	n/a	n/a	n/a	j	8	0.02000000000000001	2	j	1	0.5665514298016205
17	67	n/a	n/a	n/a	j	8	0.03000000000000001	1	j	1	0.5560304349055514
17	68	n/a	n/a	n/a	f	8	0.02000000000000001	1	j	0	0.6126456069760025
17	69	n/a	n/a	n/a	j	8	0.03000000000000001	1	f	0	0.20323997491505
17	70	n/a	n/a	n/a	j	8	0.02000000000000001	0	j	1	0.566920347395353
17	71	n/a	n/a	n/a	j	8	0.03000000000000001	1	j	1	0.6373804796021432
18	0	f	1	0.7764079738408327	f	11	0.02000000000000001	0	f	1	1.024896238348447
18	1	n/a	n/a	n/a	f	11	0.03000000000000001	2	f	1	0.8866000219713897
18	2	n/a	n/a	n/a	j	11	0.04000000000000001	0	j	1	1.016584187629633
18	3	n/a	n/a	n/a	f	11	0.05000000000000002	1	f	1	0.9735174728557467
18	4	n/a	n/a	n/a	f	11	0.04000000000000001	1	f	1	0.9664729706710204
18	5	n/a	n/a	n/a	f	11	0.03000000000000001	1	f	1	0.999407850089483
18	6	n/a	n/a	n/a	f	11	0.02000000000000001	1	f	1	0.9689929574960843
18	7	n/a	n/a	n/a	f	11	0.01000000000000001	0	f	1	0.9498502946225926
18	8	n/a	n/a	n/a	j	11	0.02000000000000001	0	j	1	0.9358000637730584
18	9	n/a	n/a	n/a	f	11	0.03000000000000001	0	f	1	0.9758051043609157
18	10	n/a	n/a	n/a	f	11	0.04000000000000001	1	f	1	0.9876535185612738
18	11	n/a	n/a	n/a	f	11	0.03000000000000001	1	f	1	0.9402490279171616
18	12	n/a	n/a	n/a	f	11	0.02000000000000001	0	f	1	0.9478694293648005
18	13	n/a	n/a	n/a	f	11	0.03000000000000001	0	f	1	0.9729344460647553
18	14	n/a	n/a	n/a	j	11	0.04000000000000001	1	j	1	0.940932409488596
18	15	n/a	n/a	n/a	f	11	0.03000000000000001	0	f	1	0.9658622893039137
18	16	n/a	n/a	n/a	f	11	0.04000000000000001	1	f	1	0.9217384288785979
18	17	n/a	n/a	n/a	f	11	0.03000000000000001	0	f	1	0.9607644407078624
18	18	n/a	n/a	n/a	f	11	0.04000000000000001	1	f	1	0.9622004824923351
18	19	n/a	n/a	n/a	f	11	0.03000000000000001	1	f	1	0.9626774524804205
18	20	n/a	n/a	n/a	j	11	0.02000000000000001	0	j	1	0.914588155108504
18	21	n/a	n/a	n/a	f	11	0.03000000000000001	0	f	1	0.9154177920427173
18	22	n/a	n/a	n/a	f	11	0.04000000000000001	0	f	1	0.9740320759592578
18	23	n/a	n/a	n/a	f	11	0.05000000000000002	1	f	1	0.9184204509947449
18	24	n/a	n/a	n/a	f	11	0.04000000000000001	0	f	1	1.022371975006536
18	25	n/a	n/a	n/a	f	11	0.05000000000000002	1	f	1	0.9148185147205368
18	26	n/a	n/a	n/a	j	11	0.04000000000000001	0	j	1	0.9204415151616558
18	27	n/a	n/a	n/a	f	11	0.05000000000000002	0	f	1	0.9122209810884669
18	28	n/a	n/a	n/a	f	11	0.06000000000000002	0	f	1	0.9394695683149621
18	29	n/a	n/a	n/a	f	11	0.07000000000000002	1	f	1	0.9756400322075933
18	30	n/a	n/a	n/a	f	11	0.06000000000000002	1	f	1	1.001051443861797
18	31	n/a	n/a	n/a	f	11	0.05000000000000002	1	f	1	0.9585349693661556
18	32	n/a	n/a	n/a	j	11	0.04000000000000001	1	j	1	0.9429067174205557
18	33	n/a	n/a	n/a	f	11	0.03000000000000001	0	f	1	0.9413703209720552
18	34	n/a	n/a	n/a	f	11	0.04000000000000001	0	f	1	0.9778275939170271
18	35	n/a	n/a	n/a	f	11	0.05000000000000002	1	f	1	0.945781652117148
18	36	n/a	n/a	n/a	f	11	0.04000000000000001	1	f	1	0.9927220020908862
18	37	n/a	n/a	n/a	f	11	0.03000000000000001	1	f	1	0.8995791373308748
18	38	n/a	n/a	n/a	j	11	0.02000000000000001	0	j	1	0.8711479611229151
18	39	n/a	n/a	n/a	f	11	0.03000000000000001	0	f	1	0.9505376674933359
18	40	n/a	n/a	n/a	f	11	0.04000000000000001	1	f	1	0.9132245283108205
18	41	n/a	n/a	n/a	f	11	0.03000000000000001	0	f	1	0.9748141013551503
18	42	n/a	n/a	n/a	f	11	0.04000000000000001	1	f	1	1.002372020622715
18	43	n/a	n/a	n/a	f	11	0.03000000000000001	1	f	1	0.8883679186692461
18	44	n/a	n/a	n/a	j	11	0.02000000000000001	0	j	1	0.9612069136928767
18	45	n/a	n/a	n/a	f	11	0.03000000000000001	1	f	1	0.8853886380093172
18	46	n/a	n/a	n/a	f	11	0.02000000000000001	0	f	1	0.9163420818513259
18	47	n/a	n/a	n/a	f	11	0.03000000000000001	0	f	1	1.008132438641042
18	48	n/a	n/a	n/a	f	11	0.04000000000000001	1	f	1	0.9165918282233179
18	49	n/a	n/a	n/a	f	11	0.03000000000000001	0	f	1	0.9225925843929872
18	50	n/a	n/a	n/a	j	11	0.04000000000000001	0	j	1	0.9348267369205132
18	51	n/a	n/a	n/a	f	11	0.05000000000000002	1	f	1	0.9538134508766234
18	52	n/a	n/a	n/a	f	11	0.04000000000000001	1	f	1	0.886867729597725
18	53	n/a	n/a	n/a	f	11	0.03000000000000001	0	f	1	1.015789617784321
18	54	n/a	n/a	n/a	f	11	0.04000000000000001	1	f	1	0.8877407016698271
18	55	n/a	n/a	n/a	f	11	0.03000000000000001	0	f	1	0.93621602258645
18	56	n/a	n/a	n/a	j	11	0.04000000000000001	0	j	1	0.9056206626119092
18	57	n/a	n/a	n/a	f	11	0.05000000000000002	0	f	1	0.9795966310193762
18	58	n/a	n/a	n/a	f	11	0.06000000000000002	1	f	1	0.9182057715952396
18	59	n/a	n/a	n/a	f	11	0.05000000000000002	0	f	1	0.9285063854185864
18	60	n/a	n/a	n/a	f	11	0.06000000000000002	1	f	1	0.8708771173842251
18	61	n/a	n/a	n/a	f	11	0.05000000000000002	0	f	1	0.9473448479548097
18	62	n/a	n/a	n/a	j	11	0.06000000000000002	1	j	1	0.9023582788649946
18	63	n/a	n/a	n/a	f	11	0.05000000000000002	0	f	1	0.8662593747721985
18	64	n/a	n/a	n/a	f	11	0.06000000000000002	0	f	1	0.9218496172688901
18	65	n/a	n/a	n/a	f	11	0.07000000000000002	1	f	1	0.9691577445482835
18	66	n/a	n/a	n/a	f	11	0.06000000000000002	1	f	1	0.9621143827680498
18	67	n/a	n/a	n/a	f	11	0.05000000000000002	1	f	1	0.8870179766090587
18	68	n/a	n/a	n/a	j	11	0.04000000000000001	0	j	1	0.9909506842959672
18	69	n/a	n/a	n/a	f	11	0.05000000000000002	1	f	1	0.9324404614744708
18	70	n/a	n/a	n/a	f	11	0.04000000000000001	0	f	1	0.9328455866780132
18	71	n/a	n/a	n/a	f	11	0.05000000000000002	1	f	1	0.8939795151818544
19	0	f	1	1.358147748396732	f	1	0.04000000000000001	2	f	1	0.4296747195767239
19	1	n/a	n/a	n/a	j	1	0.05000000000000002	1	j	1	0.4275792445987463
19	2	n/a	n/a	n/a	f	1	0.04000000000000001	1	f	1	0.411994612775743
19	3	n/a	n/a	n/a	f	1	0.03000000000000001	1	f	1	0.4155278402613476
19	4	n/a	n/a	n/a	f	1	0.02000000000000001	2	f	1	0.4149314138339832
19	5	n/a	n/a	n/a	j	1	0.03000000000000001	2	j	1	0.3769554203609005
19	6	n/a	n/a	n/a	f	1	0.04000000000000001	1	f	1	0.4489399747690186
19	7	n/a	n/a	n/a	f	1	0.03000000000000001	2	f	1	0.4008888804819435
19	8	n/a	n/a	n/a	f	1	0.04000000000000001	1	f	1	0.4101189489010721
19	9	n/a	n/a	n/a	j	1	0.03000000000000001	1	j	1	0.3924428335158154
19	10	n/a	n/a	n/a	f	1	0.02000000000000001	1	f	1	0.4408140934538096
19	11	n/a	n/a	n/a	f	1	0.01000000000000001	2	f	1	0.3877683562459424
19	12	n/a	n/a	n/a	f	1	0.02000000000000001	1	f	1	0.4155198574298993
19	13	n/a	n/a	n/a	j	1	0.01000000000000001	2	j	1	0.3842006319900975
19	14	n/a	n/a	n/a	f	1	0.02000000000000001	1	f	1	0.4222313644131646
19	15	n/a	n/a	n/a	f	1	0.01000000000000001	2	f	1	0.4204874159768224
19	16	n/a	n/a	n/a	f	1	0.02000000000000001	2	f	1	0.4172963069286197
19	17	n/a	n/a	n/a	j	1	0.03000000000000001	2	j	1	0.4297707977239043
19	18	n/a	n/a	n/a	f	1	0.04000000000000001	2	f	1	0.4057897260645404
19	19	n/a	n/a	n/a	f	1	0.05000000000000002	1	f	1	0.3936661917250603
19	20	n/a	n/a	n/a	f	1	0.04000000000000001	1	f	1	0.3910481309285387
19	21	n/a	n/a	n/a	j	1	0.03000000000000001	1	j	1	0.3915270966244861
19	22	n/a	n/a	n/a	f	1	0.02000000000000001	1	f	1	0.4075234108604491
19	23	n/a	n/a	n/a	f	1	0.01000000000000001	2	f	1	0.3754002071218565
19	24	n/a	n/a	n/a	f	1	0.02000000000000001	1	f	1	0.4484983569709584
19	25	n/a	n/a	n/a	j	1	0.01000000000000001	2	j	1	0.3514570536790416
19	26	n/a	n/a	n/a	f	1	0.02000000000000001	0	f	1	0.4615937926573679
19	27	n/a	n/a	n/a	f	1	0.03000000000000001	2	f	1	0.3850160139845684
19	28	n/a	n/a	n/a	f	1	0.04000000000000001	1	f	1	0.3885626409901306
19	29	n/a	n/a	n/a	j	1	0.03000000000000001	1	j	1	0.3923005692195147
19	30	n/a	n/a	n/a	f	1	0.02000000000000001	1	f	1	0.4479823284782469
19	31	n/a	n/a	n/a	f	1	0.01000000000000001	2	f	1	0.3654705068329349
19	32	n/a	n/a	n/a	f	1	0.02000000000000001	1	f	1	0.4079476376064122
19	33	n/a	n/a	n/a	j	1	0.01000000000000001	2	j	1	0.3557848508935422
19	34	n/a	n/a	n/a	f	1	0.02000000000000001	0	f	1	0.3882242288673297
19	35	n/a	n/a	n/a	f	1	0.03000000000000001	1	f	1	0.4157396684167907
19	36	n/a	n/a	n/a	f	1	0.02000000000000001	2	f	1	0.4082270342623815
19	37	n/a	n/a	n/a	j	1	0.03000000000000001	1	j	1	0.3861832078546286
19	38	n/a	n/a	n/a	f	1	0.02000000000000001	1	f	1	0.4234763901913539
19	39	n/a	n/a	n/a	f	1	0.01000000000000001	2	f	1	0.3717677654931322
19	40	n/a	n/a	n/a	f	1	0.02000000000000001	1	f	1	0.4030231289798394
19	41	n/a	n/a	n/a	j	1	0.01000000000000001	2	j	1	0.3890977711416781
19	42	n/a	n/a	n/a	f	1	0.02000000000000001	1	f	1	0.389995546778664
19	43	n/a	n/a	n/a	f	1	0.01000000000000001	1	f	1	0.4058992039645091
19	44	n/a	n/a	n/a	f	1	1.040834085586084e-17	2	f	1	0.3899812917225063
19	45	n/a	n/a	n/a	j	1	0.01000000000000001	1	j	1	0.3776353806024417
19	46	n/a	n/a	n/a	f	1	1.040834085586084e-17	0	f	1	0.4201256257947534
19	47	n/a	n/a	n/a	f	1	0.01000000000000001	2	f	1	0.4019146654754877
19	48	n/a	n/a	n/a	f	1	0.02000000000000001	1	f	1	0.384831270086579
19	49	n/a	n/a	n/a	j	1	0.01000000000000001	1	j	1	0.3914504051208496
19	50	n/a	n/a	n/a	f	1	1.040834085586084e-17	2	f	1	0.4088194692740217
19	51	n/a	n/a	n/a	f	1	0.01000000000000001	2	f	1	0.3688315346371382
19	52	n/a	n/a	n/a	f	1	0.02000000000000001	1	f	1	0.4257181206485257
19	53	n/a	n/a	n/a	j	1	0.01000000000000001	2	j	1	0.3788222461007535
19	54	n/a	n/a	n/a	f	1	0.02000000000000001	1	f	1	0.3917597371619195
19	55	n/a	n/a	n/a	f	1	0.01000000000000001	2	f	1	0.4128493384923786
19	56	n/a	n/a	n/a	f	1	0.02000000000000001	2	f	1	0.4048853932181373
19	57	n/a	n/a	n/a	j	1	0.03000000000000001	1	j	1	0.3808250640286133
19	58	n/a	n/a	n/a	f	1	0.02000000000000001	1	f	1	0.4326368944020942
19	59	n/a	n/a	n/a	f	1	0.01000000000000001	2	f	1	0.3766070296987891
19	60	n/a	n/a	n/a	f	1	0.02000000000000001	1	f	1	0.3906498480355367
19	61	n/a	n/a	n/a	j	1	0.01000000000000001	1	j	1	0.3985533524537459
19	62	n/a	n/a	n/a	f	1	1.040834085586084e-17	2	f	1	0.3825801312923431
19	63	n/a	n/a	n/a	f	1	0.01000000000000001	1	f	1	0.4085263878805563
19	64	n/a	n/a	n/a	f	1	1.040834085586084e-17	2	f	1	0.3934689034940675
19	65	n/a	n/a	n/a	j	1	0.01000000000000001	1	j	1	0.4139002120355144
19	66	n/a	n/a	n/a	f	1	1.040834085586084e-17	2	f	1	0.390401812386699
19	67	n/a	n/a	n/a	f	1	0.01000000000000001	1	f	1	0.3909819880500436
19	68	n/a	n/a	n/a	f	1	1.040834085586084e-17	2	f	1	0.4084419986465946
19	69	n/a	n/a	n/a	j	1	0.01000000000000001	2	j	1	0.3674154496984556
19	70	n/a	n/a	n/a	f	1	0.02000000000000001	1	f	1	0.3949206257238984
19	71	n/a	n/a	n/a	f	1	0.01000000000000001	2	f	1	0.3655027229106054
20	0	f	1	0.1430456745438278	f	7	0.02000000000000001	0	f	1	0.55839504301548
20	1	n/a	n/a	n/a	f	7	0.03000000000000001	1	f	1	0.5723007288761437
20	2	n/a	n/a	n/a	j	7	0.02000000000000001	1	j	1	0.5644328618654981
20	3	n/a	n/a	n/a	f	7	0.01000000000000001	0	f	1	0.573251532856375
20	4	n/a	n/a	n/a	f	7	0.02000000000000001	1	f	1	0.5523977080592886
20	5	n/a	n/a	n/a	f	7	0.01000000000000001	0	f	1	0.5661520065041259
20	6	n/a	n/a	n/a	f	7	0.02000000000000001	1	f	1	0.6051572063006461
20	7	n/a	n/a	n/a	f	7	0.01000000000000001	2	f	1	0.6020316699286923
20	8	n/a	n/a	n/a	j	7	0.02000000000000001	1	j	1	0.5370725159300491
20	9	n/a	n/a	n/a	f	7	0.01000000000000001	0	f	1	0.5539697419153526
20	10	n/a	n/a	n/a	f	7	0.02000000000000001	0	f	1	0.566974516143091
20	11	n/a	n/a	n/a	f	7	0.03000000000000001	1	f	1	0.527973878197372
20	12	n/a	n/a	n/a	f	7	0.02000000000000001	0	f	1	0.528958038543351
20	13	n/a	n/a	n/a	f	7	0.03000000000000001	0	f	1	0.5878939136164263
20	14	n/a	n/a	n/a	j	7	0.04000000000000001	1	j	1	0.5750100212171674
20	15	n/a	n/a	n/a	f	7	0.03000000000000001	1	f	1	0.5914459575433284
20	16	n/a	n/a	n/a	f	7	0.02000000000000001	1	f	1	0.5223369079176337
20	17	n/a	n/a	n/a	f	7	0.01000000000000001	0	f	1	0.5708307602908462
20	18	n/a	n/a	n/a	f	7	0.02000000000000001	1	f	1	0.5867580806370825
20	19	n/a	n/a	n/a	f	7	0.01000000000000001	1	f	1	0.5572623460320756
20	20	n/a	n/a	n/a	j	7	1.040834085586084e-17	0	j	1	0.5446527184685692
20	21	n/a	n/a	n/a	f	7	0.01000000000000001	0	f	1	0.5766413556411862
20	22	n/a	n/a	n/a	f	7	0.02000000000000001	1	f	1	0.5381350786192343
20	23	n/a	n/a	n/a	f	7	0.01000000000000001	0	f	1	0.5612320594955236
20	24	n/a	n/a	n/a	f	7	0.02000000000000001	0	f	1	0.5560563788749278
20	25	n/a	n/a	n/a	f	7	0.03000000000000001	1	f	1	0.593185059260577
20	26	n/a	n/a	n/a	j	7	0.02000000000000001	1	j	1	0.5284189170924947
20	27	n/a	n/a	n/a	f	7	0.01000000000000001	0	f	1	0.561455576797016
20	28	n/a	n/a	n/a	f	7	0.02000000000000001	0	f	1	0.517471129540354
20	29	n/a	n/a	n/a	f	7	0.03000000000000001	0	f	1	0.6060278974473476
20	30	n/a	n/a	n/a	f	7	0.04000000000000001	1	f	1	0.5743762470083311
20	31	n/a	n/a	n/a	f	7	0.03000000000000001	1	f	1	0.5902642236324027
20	32	n/a	n/a	n/a	j	7	0.02000000000000001	1	j	1	0.5268622785806656
20	33	n/a	n/a	n/a	f	7	0.01000000000000001	0	f	1	0.5512513264548033
20	34	n/a	n/a	n/a	f	7	0.02000000000000001	0	f	1	0.5727429168764502
20	35	n/a	n/a	n/a	f	7	0.03000000000000001	1	f	1	0.5333137755515054
20	36	n/a	n/a	n/a	f	7	0.02000000000000001	0	f	1	0.5440377607010305
20	37	n/a	n/a	n/a	f	7	0.03000000000000001	0	f	1	0.5531292711384594
20	38	n/a	n/a	n/a	j	7	0.04000000000000001	1	j	1	0.5770735652185977
20	39	n/a	n/a	n/a	f	7	0.03000000000000001	1	f	1	0.5695734752807766
20	40	n/a	n/a	n/a	f	7	0.02000000000000001	1	f	1	0.5255154725164175
20	41	n/a	n/a	n/a	f	7	0.01000000000000001	0	f	1	0.5727936644107103
20	42	n/a	n/a	n/a	f	7	0.02000000000000001	1	f	1	0.5515558117767796
20	43	n/a	n/a	n/a	f	7	0.01000000000000001	0	f	1	0.5458478518994525
20	44	n/a	n/a	n/a	j	7	0.02000000000000001	0	j	1	0.5538901994004846
20	45	n/a	n/a	n/a	f	7	0.03000000000000001	0	f	1	0.6008741693804041
20	46	n/a	n/a	n/a	f	7	0.04000000000000001	1	f	1	0.5876900681760162
20	47	n/a	n/a	n/a	f	7	0.03000000000000001	1	f	1	0.5489594184327871
20	48	n/a	n/a	n/a	f	7	0.02000000000000001	0	f	1	0.5635701533174142
20	49	n/a	n/a	n/a	f	7	0.03000000000000001	1	f	1	0.5932514872401953
20	50	n/a	n/a	n/a	j	7	0.02000000000000001	1	j	1	0.5752175729721785
20	51	n/a	n/a	n/a	f	7	0.01000000000000001	0	f	1	0.6122333543607965
20	52	n/a	n/a	n/a	f	7	0.02000000000000001	2	f	1	0.5898129126289859
20	53	n/a	n/a	n/a	f	7	0.03000000000000001	1	f	1	0.5641061388887465
20	54	n/a	n/a	n/a	f	7	0.02000000000000001	1	f	1	0.5332062933593988
20	55	n/a	n/a	n/a	f	7	0.01000000000000001	0	f	1	0.5566804596455768
20	56	n/a	n/a	n/a	j	7	0.02000000000000001	0	j	1	0.5521776118548587
20	57	n/a	n/a	n/a	f	7	0.03000000000000001	0	f	1	0.5883785813348368
20	58	n/a	n/a	n/a	f	7	0.04000000000000001	1	f	1	0.5872156639816239
20	59	n/a	n/a	n/a	f	7	0.03000000000000001	1	f	1	0.5600882436847314
20	60	n/a	n/a	n/a	f	7	0.02000000000000001	0	f	1	0.5596631616353989
20	61	n/a	n/a	n/a	f	7	0.03000000000000001	0	f	1	0.61082553723827
20	62	n/a	n/a	n/a	j	7	0.04000000000000001	1	j	1	0.543281679158099
20	63	n/a	n/a	n/a	f	7	0.03000000000000001	0	f	1	0.5687943007797003
20	64	n/a	n/a	n/a	f	7	0.04000000000000001	1	f	1	0.5282450069207698
20	65	n/a	n/a	n/a	f	7	0.03000000000000001	0	f	1	0.5842081585433334
20	66	n/a	n/a	n/a	f	7	0.04000000000000001	1	f	1	0.567173800081946
20	67	n/a	n/a	n/a	f	7	0.03000000000000001	1	f	1	0.5361396733205765
20	68	n/a	n/a	n/a	j	7	0.02000000000000001	0	j	1	0.5420933880377561
20	69	n/a	n/a	n/a	f	7	0.03000000000000001	0	f	1	0.58310454164166
20	70	n/a	n/a	n/a	f	7	0.04000000000000001	1	f	1	0.5625338198151439
20	71	n/a	n/a	n/a	f	7	0.03000000000000001	1	f	1	0.6155102781485766
21	0	j	1	0.2284729147795588	j	10	0.08000000000000002	0	j	1	0.9614455413538963
