blockLoop_thisRepN	trialLoop_thisRepN	trigger	firstKey	readyKey_corr	readyKey_rt	targetKey	blockType	margin	outcome	trialResp_keys	trialResp_corr	trialResp_rt
0	0	42	j	1	2.888329430332305	j	2	0.1	0	j	1	0.3120701068955896
0	1	62	n/a	n/a	n/a	f	2	0.11	0	j	0	0.5407012514115195
0	2	122	n/a	n/a	n/a	j	2	0.1	0	f	0	0.4088938800159667
0	3	122	n/a	n/a	n/a	j	2	0.11	0	f	0	0.3555778692752938
0	4	122	n/a	n/a	n/a	j	2	0.1	1	j	1	0.446407443582757
0	5	82	n/a	n/a	n/a	f	2	0.09000000000000001	1	j	0	0.3071036886631191
0	6	122	n/a	n/a	n/a	j	2	0.08000000000000002	0	j	1	0.4619379066580223
0	7	62	n/a	n/a	n/a	j	2	0.09000000000000001	1	j	1	1.00118658052088
0	8	82	n/a	n/a	n/a	j	2	0.08000000000000002	2	j	1	0.3094087111321642
0	9	102	n/a	n/a	n/a	f	2	0.09000000000000001	2	j	0	0.3856115850403512
0	10	122	n/a	n/a	n/a	j	2	0.08000000000000002	2	f	0	0.2364203243396332
0	11	122	n/a	n/a	n/a	j	2	0.07000000000000002	0	j	1	0.4635509947374885
0	12	62	n/a	n/a	n/a	j	2	0.08000000000000002	1	j	1	0.3642665352936092
0	13	82	n/a	n/a	n/a	f	2	0.07000000000000002	1	f	1	0.4312812503740133
0	14	82	n/a	n/a	n/a	j	2	0.06000000000000002	1	j	1	0.5632625319385625
0	15	82	n/a	n/a	n/a	j	2	0.05000000000000002	2	j	1	0.3341202055671602
0	16	102	n/a	n/a	n/a	j	2	0.06000000000000002	1	j	1	0.4412041083851364
0	17	82	n/a	n/a	n/a	f	2	0.05000000000000002	2	f	1	0.4281346167326774
0	18	102	n/a	n/a	n/a	j	2	0.06000000000000002	1	j	1	0.4069877105384876
0	19	82	n/a	n/a	n/a	j	2	0.05000000000000002	1	j	1	0.4106572150767533
0	20	82	n/a	n/a	n/a	j	2	0.04000000000000001	1	j	1	0.3992444315963439
0	21	82	n/a	n/a	n/a	f	2	0.03000000000000001	1	f	1	0.4191808089844926
0	22	82	n/a	n/a	n/a	j	2	0.02000000000000001	2	j	1	0.3902931897346207
0	23	102	n/a	n/a	n/a	j	2	0.03000000000000001	1	j	1	0.3771883458521188
0	24	82	n/a	n/a	n/a	j	2	0.02000000000000001	1	j	1	0.4207876248938192
0	25	82	n/a	n/a	n/a	f	2	0.01000000000000001	2	f	1	0.4018633476625837
0	26	102	n/a	n/a	n/a	j	2	0.02000000000000001	1	j	1	0.397916727250049
0	27	82	n/a	n/a	n/a	j	2	0.01000000000000001	2	j	1	0.4010833177953828
0	28	102	n/a	n/a	n/a	j	2	0.02000000000000001	1	j	1	0.403939721025381
0	29	82	n/a	n/a	n/a	f	2	0.01000000000000001	2	f	1	0.3998933160901288
0	30	102	n/a	n/a	n/a	j	2	0.02000000000000001	1	j	1	0.4119276145966069
0	31	82	n/a	n/a	n/a	j	2	0.01000000000000001	2	j	1	0.4148475948222767
0	32	102	n/a	n/a	n/a	j	2	0.02000000000000001	2	j	1	0.3945331766435629
0	33	102	n/a	n/a	n/a	f	2	0.03000000000000001	1	f	1	0.423944236987154
0	34	82	n/a	n/a	n/a	j	2	0.02000000000000001	2	j	1	0.3647152805460792
0	35	102	n/a	n/a	n/a	j	2	0.03000000000000001	1	j	1	0.3855400252823529
0	36	82	n/a	n/a	n/a	j	2	0.02000000000000001	1	j	1	0.412836509047338
0	37	82	n/a	n/a	n/a	f	2	0.01000000000000001	2	f	1	0.3848190108328708
0	38	102	n/a	n/a	n/a	j	2	0.02000000000000001	1	j	1	0.3636789470047006
0	39	82	n/a	n/a	n/a	j	2	0.01000000000000001	0	j	1	0.4226878073004627
0	40	62	n/a	n/a	n/a	j	2	0.02000000000000001	2	j	1	0.3936277033762963
0	41	102	n/a	n/a	n/a	f	2	0.03000000000000001	1	f	1	0.4314976402392858
0	42	82	n/a	n/a	n/a	j	2	0.02000000000000001	2	j	1	0.4105240740136651
0	43	102	n/a	n/a	n/a	j	2	0.03000000000000001	1	j	1	0.3421066736464127
0	44	82	n/a	n/a	n/a	j	2	0.02000000000000001	0	j	1	0.4105696897959206
0	45	62	n/a	n/a	n/a	f	2	0.03000000000000001	1	f	1	0.4056018460705673
0	46	82	n/a	n/a	n/a	j	2	0.02000000000000001	1	j	1	0.4135518215234697
0	47	82	n/a	n/a	n/a	j	2	0.01000000000000001	2	j	1	0.3780755728057557
0	48	102	n/a	n/a	n/a	j	2	0.02000000000000001	1	j	1	0.4103165222077223
0	49	82	n/a	n/a	n/a	f	2	0.01000000000000001	2	f	1	0.4235904295810542
0	50	102	n/a	n/a	n/a	j	2	0.02000000000000001	2	j	1	0.3810003997086824
0	51	102	n/a	n/a	n/a	j	2	0.03000000000000001	1	j	1	0.4022775959801947
0	52	82	n/a	n/a	n/a	j	2	0.02000000000000001	2	j	1	0.4081112842613948
0	53	102	n/a	n/a	n/a	f	2	0.03000000000000001	1	f	1	0.3788490454044222
0	54	82	n/a	n/a	n/a	j	2	0.02000000000000001	1	j	1	0.3892654091532677
0	55	82	n/a	n/a	n/a	j	2	0.01000000000000001	1	j	1	0.385432828195917
0	56	82	n/a	n/a	n/a	j	2	1.040834085586084e-17	0	j	1	0.4039374402354952
0	57	62	n/a	n/a	n/a	f	2	0.01000000000000001	2	f	1	0.4147714734863257
0	58	102	n/a	n/a	n/a	j	2	0.02000000000000001	2	j	1	0.3091712239684057
0	59	102	n/a	n/a	n/a	j	2	0.03000000000000001	0	j	1	0.475279952605888
0	60	62	n/a	n/a	n/a	j	2	0.04000000000000001	2	j	1	0.4351768381311558
0	61	102	n/a	n/a	n/a	f	2	0.05000000000000002	1	f	1	0.4311826062466935
0	62	82	n/a	n/a	n/a	j	2	0.04000000000000001	2	j	1	0.4413523596758751
0	63	102	n/a	n/a	n/a	j	2	0.05000000000000002	2	j	1	0.4137511054705101
0	64	102	n/a	n/a	n/a	j	2	0.06000000000000002	1	j	1	0.4510140673364731
0	65	82	n/a	n/a	n/a	f	2	0.05000000000000002	2	f	1	0.3532622981574605
0	66	102	n/a	n/a	n/a	j	2	0.06000000000000002	1	j	1	0.4192252843713504
0	67	82	n/a	n/a	n/a	j	2	0.05000000000000002	1	j	1	0.3507927737755381
0	68	82	n/a	n/a	n/a	j	2	0.04000000000000001	1	j	1	0.4415955488120744
0	69	82	n/a	n/a	n/a	f	2	0.03000000000000001	2	f	1	0.3680925589824255
0	70	102	n/a	n/a	n/a	j	2	0.04000000000000001	1	j	1	0.3569041481287059
0	71	82	n/a	n/a	n/a	j	2	0.03000000000000001	1	j	1	0.42189637348838
1	0	88	j	1	1.672090098010813	j	8	0.1	0	j	1	0.4954943011625801
1	1	68	n/a	n/a	n/a	j	8	0.11	1	j	1	0.6043438198312288
1	2	88	n/a	n/a	n/a	f	8	0.1	1	f	1	0.5273606309574461
1	3	88	n/a	n/a	n/a	j	8	0.09000000000000001	1	j	1	0.5633101434104901
1	4	88	n/a	n/a	n/a	j	8	0.08000000000000002	1	j	1	0.5123593109510693
1	5	88	n/a	n/a	n/a	j	8	0.07000000000000002	0	j	1	0.5632608213463755
1	6	68	n/a	n/a	n/a	j	8	0.08000000000000002	0	f	0	0.5666560609970475
1	7	128	n/a	n/a	n/a	j	8	0.07000000000000002	1	j	1	0.5367611882684287
1	8	88	n/a	n/a	n/a	f	8	0.06000000000000002	1	j	0	0.5237247680579458
1	9	128	n/a	n/a	n/a	j	8	0.05000000000000002	0	j	1	0.5923685367424696
1	10	68	n/a	n/a	n/a	j	8	0.06000000000000002	0	f	0	0.5010659837989806
1	11	128	n/a	n/a	n/a	j	8	0.05000000000000002	0	j	1	0.5922234215368007
1	12	68	n/a	n/a	n/a	j	8	0.06000000000000002	1	j	1	0.5640194688157862
1	13	88	n/a	n/a	n/a	j	8	0.05000000000000002	1	j	1	0.6160570972733694
1	14	88	n/a	n/a	n/a	f	8	0.04000000000000001	1	f	1	0.5149787972140984
1	15	88	n/a	n/a	n/a	j	8	0.03000000000000001	0	j	1	0.5598436291002145
1	16	68	n/a	n/a	n/a	j	8	0.04000000000000001	1	j	1	0.5326292537429254
1	17	88	n/a	n/a	n/a	j	8	0.03000000000000001	0	j	1	0.5224215821945108
1	18	68	n/a	n/a	n/a	j	8	0.04000000000000001	0	f	0	0.5599046402076056
1	19	128	n/a	n/a	n/a	j	8	0.05000000000000002	1	j	1	0.5646258736142045
1	20	88	n/a	n/a	n/a	f	8	0.04000000000000001	1	j	0	0.52148446297997
1	21	128	n/a	n/a	n/a	j	8	0.03000000000000001	0	j	1	0.5678568964503938
1	22	68	n/a	n/a	n/a	j	8	0.04000000000000001	0	f	0	0.5147356080778991
1	23	128	n/a	n/a	n/a	j	8	0.03000000000000001	0	j	1	0.5426396370348812
1	24	68	n/a	n/a	n/a	j	8	0.04000000000000001	0	f	0	3.995986666507633
1	25	128	n/a	n/a	n/a	j	8	0.05000000000000002	2	j	1	0.8956045773156802
1	26	108	n/a	n/a	n/a	f	8	0.06000000000000002	2	j	0	0.4674557056505364
1	27	128	n/a	n/a	n/a	j	8	0.07000000000000002	0	j	1	0.4645417124957021
1	28	68	n/a	n/a	n/a	j	8	0.08000000000000002	0	f	0	0.5020222046214258
1	29	128	n/a	n/a	n/a	j	8	0.09000000000000001	0	f	0	1.2653082286879
1	30	128	n/a	n/a	n/a	j	8	0.08000000000000002	0	f	0	0.9721929045790603
1	31	128	n/a	n/a	n/a	j	8	0.09000000000000001	0	f	0	0.4323287027609695
1	32	128	n/a	n/a	n/a	f	8	0.1	0	j	0	0.7151736336218164
1	33	128	n/a	n/a	n/a	j	8	0.11	2	j	1	0.593215279690412
1	34	108	n/a	n/a	n/a	j	8	0.12	1	j	1	0.4520506859762463
1	35	88	n/a	n/a	n/a	j	8	0.11	1	f	0	0.6241841189803381
1	36	128	n/a	n/a	n/a	j	8	0.12	1	f	0	0.5968465810119596
1	37	128	n/a	n/a	n/a	j	8	0.11	1	j	1	0.5389598689462218
1	38	88	n/a	n/a	n/a	f	8	0.1	1	j	0	0.5140097469520697
1	39	128	n/a	n/a	n/a	j	8	0.09000000000000001	1	j	1	0.8457305624024229
1	40	88	n/a	n/a	n/a	j	8	0.08000000000000002	2	j	1	0.4498138020808256
1	41	108	n/a	n/a	n/a	j	8	0.09000000000000001	0	j	1	0.5249652322208931
1	42	68	n/a	n/a	n/a	j	8	0.1	0	f	0	0.4507703080034844
1	43	128	n/a	n/a	n/a	j	8	0.09000000000000001	0	j	1	0.4880184447420106
1	44	68	n/a	n/a	n/a	f	8	0.1	0	j	0	0.4457671120480882
1	45	128	n/a	n/a	n/a	j	8	0.11	0	j	1	0.5127116928651958
1	46	68	n/a	n/a	n/a	j	8	0.12	0	f	0	0.4537130961198272
1	47	128	n/a	n/a	n/a	j	8	0.11	0	j	1	0.4823503987672666
1	48	68	n/a	n/a	n/a	j	8	0.12	1	j	1	0.4537096749363627
1	49	88	n/a	n/a	n/a	j	8	0.11	0	j	1	0.4295903303673185
1	50	68	n/a	n/a	n/a	f	8	0.12	0	f	1	0.529738068478764
1	51	68	n/a	n/a	n/a	j	8	0.13	1	j	1	0.4549318927865897
1	52	88	n/a	n/a	n/a	j	8	0.12	0	j	1	0.4490779625020878
1	53	68	n/a	n/a	n/a	j	8	0.13	0	j	1	0.8158761736794986
1	54	68	n/a	n/a	n/a	j	8	0.14	0	f	0	0.5482860155125309
1	55	128	n/a	n/a	n/a	j	8	0.15	0	f	0	0.5833790916649377
1	56	128	n/a	n/a	n/a	f	8	0.14	0	j	0	0.5864128262455779
1	57	128	n/a	n/a	n/a	j	8	0.13	1	j	1	0.5383836846031045
1	58	88	n/a	n/a	n/a	j	8	0.12	1	j	1	0.4629847888472796
1	59	88	n/a	n/a	n/a	j	8	0.11	1	f	0	0.4818269576726379
1	60	128	n/a	n/a	n/a	j	8	0.12	1	j	1	0.5509117739466092
1	61	88	n/a	n/a	n/a	j	8	0.11	1	j	1	0.4840552886089426
1	62	88	n/a	n/a	n/a	f	8	0.1	1	j	0	0.4751051871417076
1	63	128	n/a	n/a	n/a	j	8	0.11	1	f	0	0.5211255237973091
1	64	128	n/a	n/a	n/a	j	8	0.1	1	j	1	0.4291797883315667
1	65	88	n/a	n/a	n/a	j	8	0.09000000000000002	0	j	1	0.5042756242373798
1	66	68	n/a	n/a	n/a	j	8	0.1	1	j	1	0.5321699598407577
1	67	88	n/a	n/a	n/a	j	8	0.09000000000000002	1	f	0	0.4977710988678155
1	68	128	n/a	n/a	n/a	f	8	0.08000000000000003	1	j	0	0.5907377725470724
1	69	128	n/a	n/a	n/a	j	8	0.09000000000000002	1	j	1	0.5140405376050694
1	70	88	n/a	n/a	n/a	j	8	0.08000000000000003	1	j	1	0.5109865610202178
1	71	88	n/a	n/a	n/a	j	8	0.07000000000000003	0	j	1	0.4926270641853989
2	0	72	j	1	3.349855369461693	j	12	0.1	0	j	1	0.9377672443333722
2	1	72	n/a	n/a	n/a	j	12	0.11	1	j	1	0.8136652337616397
2	2	92	n/a	n/a	n/a	f	12	0.1	1	j	0	0.8251666829173701
2	3	132	n/a	n/a	n/a	j	12	0.11	0	j	1	0.9248525612401863
2	4	72	n/a	n/a	n/a	j	12	0.12	1	j	1	0.7136956822951106
2	5	92	n/a	n/a	n/a	j	12	0.11	1	f	0	1.295659544332011
2	6	132	n/a	n/a	n/a	j	12	0.12	2	j	1	0.7966984437607607
2	7	112	n/a	n/a	n/a	j	12	0.13	0	j	1	0.7207547245116075
2	8	72	n/a	n/a	n/a	f	12	0.14	0	j	0	0.8206575628973951
2	9	132	n/a	n/a	n/a	j	12	0.15	0	j	1	0.7910204193340178
2	10	72	n/a	n/a	n/a	j	12	0.16	0	j	1	0.7545075519783495
2	11	72	n/a	n/a	n/a	j	12	0.17	0	j	1	0.728646539843794
2	12	72	n/a	n/a	n/a	j	12	0.18	0	j	1	0.798621719156472
2	13	72	n/a	n/a	n/a	j	12	0.1900000000000001	1	j	1	0.7544488216590253
2	14	92	n/a	n/a	n/a	f	12	0.18	0	f	1	0.7125581387390412
2	15	72	n/a	n/a	n/a	j	12	0.1900000000000001	0	j	1	0.6848257391611696
2	16	72	n/a	n/a	n/a	j	12	0.2000000000000001	0	j	1	0.7764401900121811
2	17	72	n/a	n/a	n/a	j	12	0.2100000000000001	0	j	1	0.6621045183001115
2	18	72	n/a	n/a	n/a	j	12	0.2200000000000001	0	j	1	0.7051515612856747
2	19	72	n/a	n/a	n/a	j	12	0.2300000000000001	0	j	1	0.7571219064657271
2	20	72	n/a	n/a	n/a	f	12	0.2400000000000001	1	f	1	0.6262904276991321
2	21	92	n/a	n/a	n/a	j	12	0.2300000000000001	0	j	1	0.686532054494819
2	22	72	n/a	n/a	n/a	j	12	0.2400000000000001	0	j	1	0.7570055862224763
2	23	72	n/a	n/a	n/a	j	12	0.2500000000000001	1	j	1	0.8250580603371418
2	24	92	n/a	n/a	n/a	j	12	0.2400000000000001	1	j	1	0.7309738000058132
2	25	92	n/a	n/a	n/a	j	12	0.2300000000000001	0	j	1	0.7139876232977258
2	26	72	n/a	n/a	n/a	f	12	0.2400000000000001	0	f	1	0.7258306206203997
2	27	72	n/a	n/a	n/a	j	12	0.2500000000000001	0	j	1	0.7460774704231881
2	28	72	n/a	n/a	n/a	j	12	0.2600000000000001	1	j	1	0.7049662471717966
2	29	92	n/a	n/a	n/a	j	12	0.2500000000000001	0	j	1	0.7484512016617373
2	30	72	n/a	n/a	n/a	j	12	0.2600000000000001	1	j	1	0.6804771296729086
2	31	92	n/a	n/a	n/a	j	12	0.2500000000000001	0	j	1	0.7398198404707728
2	32	72	n/a	n/a	n/a	f	12	0.2600000000000001	1	f	1	0.7655913316330043
2	33	92	n/a	n/a	n/a	j	12	0.2500000000000001	1	j	1	0.7705432098346137
2	34	92	n/a	n/a	n/a	j	12	0.2400000000000001	1	j	1	0.7734723132161889
2	35	92	n/a	n/a	n/a	j	12	0.2300000000000001	1	j	1	0.7445191212800637
2	36	92	n/a	n/a	n/a	j	12	0.2200000000000001	0	j	1	0.7083951284621435
2	37	72	n/a	n/a	n/a	j	12	0.2300000000000001	0	j	1	0.6961872048877922
2	38	72	n/a	n/a	n/a	f	12	0.2400000000000001	0	f	1	0.6783129459290649
2	39	72	n/a	n/a	n/a	j	12	0.2500000000000001	0	j	1	0.7453364990687987
2	40	72	n/a	n/a	n/a	j	12	0.2600000000000001	1	j	1	0.6599366282753181
2	41	92	n/a	n/a	n/a	j	12	0.2500000000000001	0	j	1	0.9181267993290021
2	42	72	n/a	n/a	n/a	j	12	0.2600000000000001	1	j	1	0.7531516228673354
2	43	92	n/a	n/a	n/a	j	12	0.2500000000000001	1	j	1	0.7177791500525927
2	44	92	n/a	n/a	n/a	f	12	0.2400000000000001	0	f	1	0.7490721464901071
2	45	72	n/a	n/a	n/a	j	12	0.2500000000000001	1	j	1	0.7640703304123235
2	46	92	n/a	n/a	n/a	j	12	0.2400000000000001	1	j	1	0.6896342127483877
2	47	92	n/a	n/a	n/a	j	12	0.2300000000000001	0	j	1	0.768156078958782
2	48	72	n/a	n/a	n/a	j	12	0.2400000000000001	1	j	1	0.7249163092956223
2	49	92	n/a	n/a	n/a	j	12	0.2300000000000001	0	j	1	0.7549896537702807
2	50	72	n/a	n/a	n/a	f	12	0.2400000000000001	1	f	1	0.7986011920538658
2	51	92	n/a	n/a	n/a	j	12	0.2300000000000001	1	j	1	0.7717674233754224
2	52	92	n/a	n/a	n/a	j	12	0.2200000000000001	1	j	1	0.7483471406603712
2	53	92	n/a	n/a	n/a	j	12	0.2100000000000001	0	j	1	0.761273512797743
2	54	72	n/a	n/a	n/a	j	12	0.2200000000000001	0	j	1	0.7517634776104387
2	55	72	n/a	n/a	n/a	j	12	0.2300000000000001	0	j	1	0.757664449170079
2	56	72	n/a	n/a	n/a	f	12	0.2400000000000001	1	f	1	0.715542266157172
2	57	92	n/a	n/a	n/a	j	12	0.2300000000000001	0	j	1	0.7300996875883357
2	58	72	n/a	n/a	n/a	j	12	0.2400000000000001	0	j	1	0.7254374696012746
2	59	72	n/a	n/a	n/a	j	12	0.2500000000000001	0	j	1	0.7220131498897899
2	60	72	n/a	n/a	n/a	j	12	0.2600000000000001	0	j	1	0.6859798184377723
2	61	72	n/a	n/a	n/a	j	12	0.2700000000000001	0	j	1	0.7319117745173571
2	62	72	n/a	n/a	n/a	f	12	0.2800000000000001	0	j	0	0.7903615563873245
2	63	132	n/a	n/a	n/a	j	12	0.2700000000000001	0	f	0	0.6267810824510889
2	64	132	n/a	n/a	n/a	j	12	0.2600000000000001	0	j	1	0.7443577554522562
2	65	72	n/a	n/a	n/a	j	12	0.2700000000000001	1	j	1	0.812354065135878
2	66	92	n/a	n/a	n/a	j	12	0.2600000000000001	1	j	1	0.6871809389895134
2	67	92	n/a	n/a	n/a	j	12	0.2500000000000001	0	j	1	0.7410614450282083
2	68	72	n/a	n/a	n/a	f	12	0.2600000000000001	1	f	1	0.7282334319206711
2	69	92	n/a	n/a	n/a	j	12	0.2500000000000001	0	j	1	0.7740590462080945
2	70	72	n/a	n/a	n/a	j	12	0.2600000000000001	1	j	1	0.7479611171083889
2	71	92	n/a	n/a	n/a	j	12	0.2500000000000001	1	j	1	0.7905326155687362
3	0	84	j	1	0.09650987952227297	j	4	0.1	2	j	1	0.5299672877827106
3	1	104	n/a	n/a	n/a	j	4	0.11	2	j	1	0.3260556204631939
3	2	104	n/a	n/a	n/a	f	4	0.12	2	j	0	0.4416890611646522
3	3	124	n/a	n/a	n/a	j	4	0.11	1	j	1	0.4771938197463896
3	4	84	n/a	n/a	n/a	j	4	0.1	1	j	1	0.36242194712122
3	5	84	n/a	n/a	n/a	j	4	0.09000000000000001	1	j	1	0.4218573149746589
3	6	84	n/a	n/a	n/a	j	4	0.08000000000000002	1	j	1	0.3938135876869637
3	7	84	n/a	n/a	n/a	j	4	0.07000000000000002	1	j	1	0.4458050301664116
3	8	84	n/a	n/a	n/a	f	4	0.06000000000000002	2	f	1	0.4107190814811474
3	9	104	n/a	n/a	n/a	j	4	0.07000000000000002	1	j	1	0.4057047666774451
3	10	84	n/a	n/a	n/a	j	4	0.06000000000000002	1	j	1	0.3956051475124696
3	11	84	n/a	n/a	n/a	j	4	0.05000000000000002	1	j	1	0.3998388622512721
3	12	84	n/a	n/a	n/a	j	4	0.04000000000000001	1	j	1	0.4266019264687202
3	13	84	n/a	n/a	n/a	j	4	0.03000000000000001	2	j	1	0.3985231320484672
3	14	104	n/a	n/a	n/a	f	4	0.04000000000000001	1	f	1	0.4986266798723591
3	15	84	n/a	n/a	n/a	j	4	0.03000000000000001	2	j	1	0.3436031563842334
3	16	104	n/a	n/a	n/a	j	4	0.04000000000000001	0	j	1	0.4685108557014246
3	17	64	n/a	n/a	n/a	j	4	0.05000000000000002	2	j	1	0.4166585413559005
3	18	104	n/a	n/a	n/a	j	4	0.06000000000000002	2	f	0	0.4684991666563292
3	19	124	n/a	n/a	n/a	j	4	0.05000000000000002	2	j	1	0.4253683046717924
3	20	104	n/a	n/a	n/a	f	4	0.06000000000000002	2	j	0	0.4316510233047666
3	21	124	n/a	n/a	n/a	j	4	0.05000000000000002	1	j	1	0.4603829786992719
3	22	84	n/a	n/a	n/a	j	4	0.04000000000000001	2	j	1	0.3950443584963068
3	23	104	n/a	n/a	n/a	j	4	0.05000000000000002	1	j	1	0.4393367123220742
3	24	84	n/a	n/a	n/a	j	4	0.04000000000000001	2	j	1	0.482333292849944
3	25	104	n/a	n/a	n/a	j	4	0.05000000000000002	2	j	1	0.3375459507724372
3	26	104	n/a	n/a	n/a	f	4	0.06000000000000002	1	f	1	0.4368877150427579
3	27	84	n/a	n/a	n/a	j	4	0.05000000000000002	2	j	1	0.3712466051874799
3	28	104	n/a	n/a	n/a	j	4	0.06000000000000002	1	j	1	0.454278161615548
3	29	84	n/a	n/a	n/a	j	4	0.05000000000000002	2	j	1	0.4112633347758674
3	30	104	n/a	n/a	n/a	j	4	0.06000000000000002	1	j	1	0.4167372285792226
3	31	84	n/a	n/a	n/a	j	4	0.05000000000000002	1	j	1	0.4469363015523413
3	32	84	n/a	n/a	n/a	f	4	0.04000000000000001	1	j	0	0.4350987211046231
3	33	124	n/a	n/a	n/a	j	4	0.05000000000000002	1	j	1	0.519214222545088
3	34	84	n/a	n/a	n/a	j	4	0.04000000000000001	2	j	1	0.3730686705675907
3	35	104	n/a	n/a	n/a	j	4	0.05000000000000002	1	j	1	0.419168834841912
3	36	84	n/a	n/a	n/a	j	4	0.04000000000000001	1	j	1	0.4350590923941127
3	37	84	n/a	n/a	n/a	j	4	0.03000000000000001	2	j	1	0.4380015954120609
3	38	104	n/a	n/a	n/a	f	4	0.04000000000000001	2	j	0	0.4349818306636735
3	39	124	n/a	n/a	n/a	j	4	0.05000000000000002	2	j	1	0.456257601442303
3	40	104	n/a	n/a	n/a	j	4	0.06000000000000002	2	j	1	0.4528458260701882
3	41	104	n/a	n/a	n/a	j	4	0.07000000000000002	2	j	1	0.4556819872968845
3	42	104	n/a	n/a	n/a	j	4	0.08000000000000002	1	j	1	0.436916510005176
3	43	84	n/a	n/a	n/a	j	4	0.07000000000000002	1	j	1	0.4418718093902498
3	44	84	n/a	n/a	n/a	f	4	0.06000000000000002	1	f	1	0.4959359189497263
3	45	84	n/a	n/a	n/a	j	4	0.05000000000000002	2	j	1	0.4368455204448765
3	46	104	n/a	n/a	n/a	j	4	0.06000000000000002	1	j	1	0.3858861350254301
3	47	84	n/a	n/a	n/a	j	4	0.05000000000000002	1	j	1	0.4548338188560592
3	48	84	n/a	n/a	n/a	j	4	0.04000000000000001	2	j	1	0.3477655964634323
3	49	104	n/a	n/a	n/a	j	4	0.05000000000000002	1	j	1	0.4657111870992594
3	50	84	n/a	n/a	n/a	f	4	0.04000000000000001	1	j	0	0.4398592981215188
3	51	124	n/a	n/a	n/a	j	4	0.05000000000000002	2	j	1	0.6436711809192275
3	52	104	n/a	n/a	n/a	j	4	0.06000000000000002	2	j	1	0.3262181266854896
3	53	104	n/a	n/a	n/a	j	4	0.07000000000000002	1	j	1	0.3947663873268539
3	54	84	n/a	n/a	n/a	j	4	0.06000000000000002	1	j	1	0.4556252526690514
3	55	84	n/a	n/a	n/a	j	4	0.05000000000000002	2	j	1	0.4104530844533656
3	56	104	n/a	n/a	n/a	f	4	0.06000000000000002	1	f	1	0.4555337360070553
3	57	84	n/a	n/a	n/a	j	4	0.05000000000000002	2	j	1	0.4355047015615128
3	58	104	n/a	n/a	n/a	j	4	0.06000000000000002	1	j	1	0.4116359586932958
3	59	84	n/a	n/a	n/a	j	4	0.05000000000000002	1	j	1	0.4007104087795597
3	60	84	n/a	n/a	n/a	j	4	0.04000000000000001	1	j	1	0.4081702996782042
3	61	84	n/a	n/a	n/a	j	4	0.03000000000000001	1	j	1	0.4523825407877666
3	62	84	n/a	n/a	n/a	f	4	0.02000000000000001	1	j	0	0.4779975127994476
3	63	124	n/a	n/a	n/a	j	4	0.03000000000000001	1	f	0	0.4743017791870443
3	64	124	n/a	n/a	n/a	j	4	0.04000000000000001	2	j	1	0.3961910252082816
3	65	104	n/a	n/a	n/a	j	4	0.05000000000000002	1	j	1	0.4229053375593139
3	66	84	n/a	n/a	n/a	j	4	0.04000000000000001	1	j	1	0.4581817321341077
3	67	84	n/a	n/a	n/a	j	4	0.03000000000000001	2	j	1	0.3774751550790825
3	68	104	n/a	n/a	n/a	f	4	0.04000000000000001	1	f	1	0.4153054632306521
3	69	84	n/a	n/a	n/a	j	4	0.03000000000000001	2	j	1	0.4499406709737741
3	70	104	n/a	n/a	n/a	j	4	0.04000000000000001	2	j	1	0.430473565939792
3	71	104	n/a	n/a	n/a	j	4	0.05000000000000002	1	j	1	0.4199448733279496
4	0	87	f	1	5.92168768128704	f	7	0.1	0	f	1	0.5257250200857015
4	1	67	n/a	n/a	n/a	f	7	0.11	1	f	1	0.5605560905914899
4	2	87	n/a	n/a	n/a	j	7	0.1	1	f	0	0.5876507245211542
4	3	127	n/a	n/a	n/a	f	7	0.09000000000000001	1	f	1	0.6096113022222198
4	4	87	n/a	n/a	n/a	f	7	0.08000000000000002	1	j	0	0.54962341321243
4	5	127	n/a	n/a	n/a	f	7	0.07000000000000002	1	f	1	0.6015749418829728
4	6	87	n/a	n/a	n/a	f	7	0.06000000000000002	1	f	1	0.5486426739062154
4	7	87	n/a	n/a	n/a	f	7	0.05000000000000002	1	f	1	0.6230793617660311
4	8	87	n/a	n/a	n/a	j	7	0.04000000000000001	1	f	0	0.5409897712315797
4	9	127	n/a	n/a	n/a	f	7	0.03000000000000001	0	f	1	0.5846372319429065
4	10	67	n/a	n/a	n/a	f	7	0.04000000000000001	1	f	1	0.5163860440788994
4	11	87	n/a	n/a	n/a	f	7	0.03000000000000001	0	f	1	0.5772483306045615
4	12	67	n/a	n/a	n/a	f	7	0.04000000000000001	0	j	0	0.5720030859074541
4	13	127	n/a	n/a	n/a	f	7	0.03000000000000001	1	f	1	0.5845063716687946
4	14	87	n/a	n/a	n/a	j	7	0.02000000000000001	1	f	0	0.5082384952729626
4	15	127	n/a	n/a	n/a	f	7	0.01000000000000001	0	f	1	0.5928326773209847
4	16	67	n/a	n/a	n/a	f	7	0.02000000000000001	1	f	1	0.548237263646115
4	17	87	n/a	n/a	n/a	f	7	0.01000000000000001	1	j	0	0.5400318398151285
4	18	127	n/a	n/a	n/a	f	7	0.02000000000000001	0	f	1	0.5350879443758458
4	19	67	n/a	n/a	n/a	f	7	0.03000000000000001	0	f	1	0.5551514757562472
4	20	67	n/a	n/a	n/a	j	7	0.04000000000000001	0	f	0	0.5270330526245743
4	21	127	n/a	n/a	n/a	f	7	0.03000000000000001	0	f	1	0.6501055720245859
4	22	67	n/a	n/a	n/a	f	7	0.04000000000000001	2	f	1	0.4610503946050812
4	23	107	n/a	n/a	n/a	f	7	0.05000000000000002	0	f	1	0.6178631971297364
4	24	67	n/a	n/a	n/a	f	7	0.06000000000000002	1	f	1	0.5258002861246496
4	25	87	n/a	n/a	n/a	f	7	0.05000000000000002	0	f	1	0.5205992317160053
4	26	67	n/a	n/a	n/a	j	7	0.06000000000000002	0	f	0	0.5168977961302517
4	27	127	n/a	n/a	n/a	f	7	0.07000000000000002	1	f	1	0.5458723704632575
4	28	87	n/a	n/a	n/a	f	7	0.06000000000000002	1	f	1	0.5451131527970574
4	29	87	n/a	n/a	n/a	f	7	0.05000000000000002	1	f	1	0.5347617915367664
4	30	87	n/a	n/a	n/a	f	7	0.04000000000000001	0	f	1	0.5808211867060891
4	31	67	n/a	n/a	n/a	f	7	0.05000000000000002	0	j	0	0.579613223787419
4	32	127	n/a	n/a	n/a	j	7	0.04000000000000001	0	f	0	0.5064238424565701
4	33	127	n/a	n/a	n/a	f	7	0.03000000000000001	0	f	1	0.5358540044098845
4	34	67	n/a	n/a	n/a	f	7	0.04000000000000001	0	f	1	0.5317058192622426
4	35	67	n/a	n/a	n/a	f	7	0.05000000000000002	0	f	1	0.5223802428927229
4	36	67	n/a	n/a	n/a	f	7	0.06000000000000002	0	f	1	0.566569961210007
4	37	67	n/a	n/a	n/a	f	7	0.07000000000000002	1	f	1	0.5071867664055389
4	38	87	n/a	n/a	n/a	j	7	0.06000000000000002	0	j	1	0.5510950923689961
4	39	67	n/a	n/a	n/a	f	7	0.07000000000000002	1	f	1	0.5384923071833327
4	40	87	n/a	n/a	n/a	f	7	0.06000000000000002	1	f	1	0.4222459044158313
4	41	87	n/a	n/a	n/a	f	7	0.05000000000000002	0	f	1	0.7144050077004067
4	42	67	n/a	n/a	n/a	f	7	0.06000000000000002	2	f	1	0.5046548054224331
4	43	107	n/a	n/a	n/a	f	7	0.07000000000000002	0	f	1	0.5084520341497409
4	44	67	n/a	n/a	n/a	j	7	0.08000000000000002	0	f	0	0.48235439014843
4	45	127	n/a	n/a	n/a	f	7	0.07000000000000002	0	f	1	0.5573980530043627
4	46	67	n/a	n/a	n/a	f	7	0.08000000000000002	1	f	1	0.4963399037160343
4	47	87	n/a	n/a	n/a	f	7	0.07000000000000002	0	f	1	0.4668555730222579
4	48	67	n/a	n/a	n/a	f	7	0.08000000000000002	0	f	1	0.5529336934696403
4	49	67	n/a	n/a	n/a	f	7	0.09000000000000001	0	j	0	0.50907925114916
4	50	127	n/a	n/a	n/a	j	7	0.08000000000000002	0	f	0	0.6006090277051044
4	51	127	n/a	n/a	n/a	f	7	0.07000000000000002	1	f	1	0.5487507262887448
4	52	87	n/a	n/a	n/a	f	7	0.06000000000000002	1	f	1	0.5467601676155027
4	53	87	n/a	n/a	n/a	f	7	0.05000000000000002	1	f	1	0.5299593050203839
4	54	87	n/a	n/a	n/a	f	7	0.04000000000000001	0	f	1	0.5270230741725754
4	55	67	n/a	n/a	n/a	f	7	0.05000000000000002	0	f	1	0.5228925651408645
4	56	67	n/a	n/a	n/a	j	7	0.06000000000000002	0	j	1	0.589863945228899
4	57	67	n/a	n/a	n/a	f	7	0.07000000000000002	1	f	1	0.561851008593294
4	58	87	n/a	n/a	n/a	f	7	0.06000000000000002	1	f	1	0.521565716090663
4	59	87	n/a	n/a	n/a	f	7	0.05000000000000002	0	f	1	0.527995260519674
4	60	67	n/a	n/a	n/a	f	7	0.06000000000000002	0	f	1	0.5268771036717226
4	61	67	n/a	n/a	n/a	f	7	0.07000000000000002	1	f	1	0.5179643501260216
4	62	87	n/a	n/a	n/a	j	7	0.06000000000000002	0	j	1	0.4918387664583861
4	63	67	n/a	n/a	n/a	f	7	0.07000000000000002	0	f	1	0.6083306391510632
4	64	67	n/a	n/a	n/a	f	7	0.08000000000000002	1	f	1	0.5004316393342378
4	65	87	n/a	n/a	n/a	f	7	0.07000000000000002	0	f	1	5.722331034868148
4	66	67	n/a	n/a	n/a	f	7	0.08000000000000002	2	f	1	0.4793973471005302
4	67	107	n/a	n/a	n/a	f	7	0.09000000000000001	0	f	1	0.451979126218248
4	68	67	n/a	n/a	n/a	j	7	0.1	0	j	1	0.5363212810734694
4	69	67	n/a	n/a	n/a	f	7	0.11	1	f	1	0.4911742015383425
4	70	87	n/a	n/a	n/a	f	7	0.1	1	f	1	0.4332646815819317
4	71	87	n/a	n/a	n/a	f	7	0.09000000000000001	1	j	0	0.5521793224797875
5	0	125	f	1	8.616296295029315	f	5	0.1	1	f	1	0.6062782140743366
5	1	85	n/a	n/a	n/a	j	5	0.09000000000000001	1	f	0	0.5292670855342294
5	2	125	n/a	n/a	n/a	f	5	0.08000000000000002	1	j	0	0.581215763218097
5	3	125	n/a	n/a	n/a	f	5	0.07000000000000002	1	f	1	0.5377259620508994
5	4	85	n/a	n/a	n/a	f	5	0.06000000000000002	1	f	1	0.5577692514279988
5	5	85	n/a	n/a	n/a	j	5	0.05000000000000002	1	j	1	0.5708524278143159
5	6	85	n/a	n/a	n/a	f	5	0.04000000000000001	1	f	1	0.5772557431691894
5	7	85	n/a	n/a	n/a	f	5	0.03000000000000001	1	f	1	0.5559585899936792
5	8	85	n/a	n/a	n/a	f	5	0.02000000000000001	0	f	1	0.5956180909915929
5	9	65	n/a	n/a	n/a	j	5	0.03000000000000001	1	j	1	0.5912161680580539
5	10	85	n/a	n/a	n/a	f	5	0.02000000000000001	1	f	1	0.5475712732331885
5	11	85	n/a	n/a	n/a	f	5	0.01000000000000001	0	f	1	0.55358229286594
5	12	65	n/a	n/a	n/a	f	5	0.02000000000000001	0	f	1	0.5406753074366861
5	13	65	n/a	n/a	n/a	j	5	0.03000000000000001	0	j	1	0.5787924248152194
5	14	65	n/a	n/a	n/a	f	5	0.04000000000000001	1	f	1	0.529137935851395
5	15	85	n/a	n/a	n/a	f	5	0.03000000000000001	0	f	1	0.5347726252848588
5	16	65	n/a	n/a	n/a	f	5	0.04000000000000001	0	f	1	0.5945398479507276
5	17	65	n/a	n/a	n/a	j	5	0.05000000000000002	1	j	1	0.5067958961762997
5	18	85	n/a	n/a	n/a	f	5	0.04000000000000001	0	f	1	0.5518209534948255
5	19	65	n/a	n/a	n/a	f	5	0.05000000000000002	1	f	1	0.5494720258366215
5	20	85	n/a	n/a	n/a	f	5	0.04000000000000001	1	f	1	0.5447465159522835
5	21	85	n/a	n/a	n/a	j	5	0.03000000000000001	0	j	1	0.5872071110443358
5	22	65	n/a	n/a	n/a	f	5	0.04000000000000001	1	f	1	0.5926721667892707
5	23	85	n/a	n/a	n/a	f	5	0.03000000000000001	1	f	1	0.524498525755007
5	24	85	n/a	n/a	n/a	f	5	0.02000000000000001	0	f	1	0.5455034528295073
5	25	65	n/a	n/a	n/a	j	5	0.03000000000000001	0	j	1	0.6054822186833917
5	26	65	n/a	n/a	n/a	f	5	0.04000000000000001	1	f	1	0.5203377962670857
5	27	85	n/a	n/a	n/a	f	5	0.03000000000000001	0	f	1	0.6110952406197612
5	28	65	n/a	n/a	n/a	f	5	0.04000000000000001	1	f	1	0.4872429764527624
5	29	85	n/a	n/a	n/a	j	5	0.03000000000000001	0	j	1	0.635256209590807
5	30	65	n/a	n/a	n/a	f	5	0.04000000000000001	2	f	1	0.6083012739918559
5	31	105	n/a	n/a	n/a	f	5	0.05000000000000002	1	f	1	0.548920930174063
5	32	85	n/a	n/a	n/a	f	5	0.04000000000000001	1	f	1	0.5839564164007243
5	33	85	n/a	n/a	n/a	j	5	0.03000000000000001	1	j	1	0.5732272994482628
5	34	85	n/a	n/a	n/a	f	5	0.02000000000000001	1	f	1	0.5878246346892411
5	35	85	n/a	n/a	n/a	f	5	0.01000000000000001	1	f	1	0.5690734123290895
5	36	85	n/a	n/a	n/a	f	5	1.040834085586084e-17	1	j	0	0.634110968371715
5	37	125	n/a	n/a	n/a	j	5	0.01000000000000001	1	f	0	0.03330294181887439
5	38	125	n/a	n/a	n/a	f	5	0.02000000000000001	0	f	1	0.558250497924746
5	39	65	n/a	n/a	n/a	f	5	0.03000000000000001	0	f	1	0.5031109963110794
5	40	65	n/a	n/a	n/a	f	5	0.04000000000000001	0	f	1	0.5569421802856596
5	41	65	n/a	n/a	n/a	j	5	0.05000000000000002	1	j	1	0.58508683249147
5	42	85	n/a	n/a	n/a	f	5	0.04000000000000001	1	f	1	0.5498851337597443
5	43	85	n/a	n/a	n/a	f	5	0.03000000000000001	0	f	1	0.5429612282960079
5	44	65	n/a	n/a	n/a	f	5	0.04000000000000001	0	f	1	0.5578787293043206
5	45	65	n/a	n/a	n/a	j	5	0.05000000000000002	1	j	1	0.5979151306974018
5	46	85	n/a	n/a	n/a	f	5	0.04000000000000001	1	f	1	0.6187852061184458
5	47	85	n/a	n/a	n/a	f	5	0.03000000000000001	2	f	1	0.5300120482679631
5	48	105	n/a	n/a	n/a	f	5	0.04000000000000001	2	j	0	0.5690967904165518
5	49	125	n/a	n/a	n/a	j	5	0.05000000000000002	2	f	0	0.5567340582829274
5	50	125	n/a	n/a	n/a	f	5	0.04000000000000001	2	j	0	0.5848464943419458
5	51	125	n/a	n/a	n/a	f	5	0.03000000000000001	1	f	1	0.5163940268412262
5	52	85	n/a	n/a	n/a	f	5	0.02000000000000001	0	f	1	0.5866098294027324
5	53	65	n/a	n/a	n/a	j	5	0.03000000000000001	1	j	1	0.5786906446019202
5	54	85	n/a	n/a	n/a	f	5	0.02000000000000001	1	f	1	0.5337964475565968
5	55	85	n/a	n/a	n/a	f	5	0.01000000000000001	0	f	1	0.5550690822501565
5	56	65	n/a	n/a	n/a	f	5	0.02000000000000001	0	f	1	0.5284842046803533
5	57	65	n/a	n/a	n/a	j	5	0.03000000000000001	0	j	1	0.6204875300709318
5	58	65	n/a	n/a	n/a	f	5	0.04000000000000001	1	f	1	0.5511281638109722
5	59	85	n/a	n/a	n/a	f	5	0.03000000000000001	0	f	1	0.5804656687068928
5	60	65	n/a	n/a	n/a	f	5	0.04000000000000001	1	f	1	0.5723697227531375
5	61	85	n/a	n/a	n/a	j	5	0.03000000000000001	1	j	1	0.5604888073130496
5	62	85	n/a	n/a	n/a	f	5	0.02000000000000001	0	f	1	0.5553279518107956
5	63	65	n/a	n/a	n/a	f	5	0.03000000000000001	1	f	1	0.5452967563187485
5	64	85	n/a	n/a	n/a	f	5	0.02000000000000001	1	j	0	0.502819625506163
5	65	125	n/a	n/a	n/a	j	5	0.03000000000000001	1	f	0	0.6091334769089372
5	66	125	n/a	n/a	n/a	f	5	0.04000000000000001	1	f	1	0.6014112952652795
5	67	85	n/a	n/a	n/a	f	5	0.03000000000000001	1	j	0	0.5019358197359907
5	68	125	n/a	n/a	n/a	f	5	0.02000000000000001	0	f	1	0.5791821546499705
5	69	65	n/a	n/a	n/a	j	5	0.03000000000000001	0	f	0	0.5571922117896975
5	70	125	n/a	n/a	n/a	f	5	0.02000000000000001	0	f	1	0.6415406388150586
5	71	65	n/a	n/a	n/a	f	5	0.03000000000000001	2	f	1	0.556985230180544
6	0	101	f	1	1.153897954074637	f	1	0.1	2	f	1	0.385246088589156
6	1	101	n/a	n/a	n/a	j	1	0.11	1	j	1	0.4193071076797423
6	2	81	n/a	n/a	n/a	f	1	0.1	1	f	1	0.432692203521583
6	3	81	n/a	n/a	n/a	f	1	0.09000000000000001	1	j	0	0.4052605830038374
6	4	121	n/a	n/a	n/a	f	1	0.08000000000000002	1	j	0	0.4412594175209961
6	5	121	n/a	n/a	n/a	j	1	0.07000000000000002	1	f	0	0.4600508387893569
6	6	121	n/a	n/a	n/a	f	1	0.06000000000000002	2	f	1	0.4481362817095942
6	7	101	n/a	n/a	n/a	f	1	0.07000000000000002	1	f	1	0.5559745555165136
6	8	81	n/a	n/a	n/a	f	1	0.06000000000000002	2	f	1	0.4891092321204269
6	9	101	n/a	n/a	n/a	j	1	0.07000000000000002	2	j	1	0.411948996994397
6	10	101	n/a	n/a	n/a	f	1	0.08000000000000002	1	f	1	0.4961163863863476
6	11	81	n/a	n/a	n/a	f	1	0.07000000000000002	2	f	1	0.4274791749703581
6	12	101	n/a	n/a	n/a	f	1	0.08000000000000002	2	j	0	0.3989342442810084
6	13	121	n/a	n/a	n/a	j	1	0.07000000000000002	2	f	0	0.539945740028088
6	14	121	n/a	n/a	n/a	f	1	0.06000000000000002	2	f	1	0.4781309389609305
6	15	101	n/a	n/a	n/a	f	1	0.07000000000000002	2	j	0	0.4983572616611127
6	16	121	n/a	n/a	n/a	f	1	0.08000000000000002	2	f	1	0.4069061723284904
6	17	101	n/a	n/a	n/a	j	1	0.09000000000000001	2	f	0	0.4188321333531349
6	18	121	n/a	n/a	n/a	f	1	0.08000000000000002	2	j	0	0.4479307255933236
6	19	121	n/a	n/a	n/a	f	1	0.07000000000000002	1	f	1	1.259530419739349
6	20	81	n/a	n/a	n/a	f	1	0.06000000000000002	2	f	1	0.4473017980035365
6	21	101	n/a	n/a	n/a	j	1	0.07000000000000002	1	j	1	0.4545709579142567
6	22	81	n/a	n/a	n/a	f	1	0.06000000000000002	2	f	1	0.474572622890264
6	23	101	n/a	n/a	n/a	f	1	0.07000000000000002	2	f	1	0.4793896494365981
6	24	101	n/a	n/a	n/a	f	1	0.08000000000000002	2	j	0	0.4744953611598248
6	25	121	n/a	n/a	n/a	j	1	0.09000000000000001	2	j	1	0.4564087037197169
6	26	101	n/a	n/a	n/a	f	1	0.1	1	f	1	0.4694733486940095
6	27	81	n/a	n/a	n/a	f	1	0.09000000000000001	1	f	1	0.4388754227293248
6	28	81	n/a	n/a	n/a	f	1	0.08000000000000002	1	f	1	0.4820869676286748
6	29	81	n/a	n/a	n/a	j	1	0.07000000000000002	2	j	1	0.4141479627705849
6	30	101	n/a	n/a	n/a	f	1	0.08000000000000002	1	f	1	0.4772841960138976
6	31	81	n/a	n/a	n/a	f	1	0.07000000000000002	2	f	1	0.4345171198883691
6	32	101	n/a	n/a	n/a	f	1	0.08000000000000002	2	j	0	0.4931006130191236
6	33	121	n/a	n/a	n/a	j	1	0.07000000000000002	2	f	0	0.4643449944369422
6	34	121	n/a	n/a	n/a	f	1	0.08000000000000002	1	f	1	0.4280336918163812
6	35	81	n/a	n/a	n/a	f	1	0.07000000000000002	1	j	0	0.4400423314455111
6	36	121	n/a	n/a	n/a	f	1	0.06000000000000002	1	f	1	0.3892252102459679
6	37	81	n/a	n/a	n/a	j	1	0.05000000000000002	1	f	0	0.4478868204032551
6	38	121	n/a	n/a	n/a	f	1	0.04000000000000001	2	f	1	0.522473470146906
6	39	101	n/a	n/a	n/a	f	1	0.05000000000000002	2	f	1	1.137381049721625
6	40	101	n/a	n/a	n/a	f	1	0.06000000000000002	2	f	1	0.3725144388208719
6	41	101	n/a	n/a	n/a	j	1	0.07000000000000002	1	j	1	0.4319384027285196
6	42	81	n/a	n/a	n/a	f	1	0.06000000000000002	1	f	1	0.4357678476017099
6	43	81	n/a	n/a	n/a	f	1	0.05000000000000002	1	j	0	0.4588152213018475
6	44	121	n/a	n/a	n/a	f	1	0.06000000000000002	2	f	1	0.5339307290141733
6	45	101	n/a	n/a	n/a	j	1	0.07000000000000002	2	f	0	0.9374353895218519
6	46	121	n/a	n/a	n/a	f	1	0.08000000000000002	2	f	1	0.9256864747494546
6	47	101	n/a	n/a	n/a	f	1	0.09000000000000001	2	f	1	0.442773006177049
6	48	101	n/a	n/a	n/a	f	1	0.1	2	j	0	0.4766840633847096
6	49	121	n/a	n/a	n/a	j	1	0.09000000000000001	2	f	0	0.8409682747942497
6	50	121	n/a	n/a	n/a	f	1	0.1	2	f	1	0.4356928666611566
6	51	101	n/a	n/a	n/a	f	1	0.11	2	j	0	0.4867942312002924
6	52	121	n/a	n/a	n/a	f	1	0.1	2	f	1	0.4183520272508758
6	53	101	n/a	n/a	n/a	j	1	0.11	2	f	0	0.4822486185539674
6	54	121	n/a	n/a	n/a	f	1	0.1	2	f	1	0.4648809798727598
6	55	101	n/a	n/a	n/a	f	1	0.11	2	j	0	0.4865715691657897
6	56	121	n/a	n/a	n/a	f	1	0.1	1	f	1	0.4686300269304411
6	57	81	n/a	n/a	n/a	j	1	0.09000000000000001	1	f	0	0.4565344322172677
6	58	121	n/a	n/a	n/a	f	1	0.08000000000000002	1	f	1	0.5006406166348825
6	59	81	n/a	n/a	n/a	f	1	0.07000000000000002	1	j	0	0.4374673205693398
6	60	121	n/a	n/a	n/a	f	1	0.08000000000000002	1	f	1	0.8726105170608207
6	61	81	n/a	n/a	n/a	j	1	0.07000000000000002	1	f	0	0.4283102374929513
6	62	121	n/a	n/a	n/a	f	1	0.08000000000000002	1	f	1	1.008553244166251
6	63	81	n/a	n/a	n/a	f	1	0.07000000000000002	2	f	1	0.3632897873676484
6	64	101	n/a	n/a	n/a	f	1	0.08000000000000002	2	j	0	0.4804861387892743
6	65	121	n/a	n/a	n/a	j	1	0.07000000000000002	2	f	0	1.180998289978561
6	66	121	n/a	n/a	n/a	f	1	0.08000000000000002	2	f	1	1.124267937978402
6	67	101	n/a	n/a	n/a	f	1	0.09000000000000001	2	f	1	0.8021381257267421
6	68	101	n/a	n/a	n/a	f	1	0.1	2	f	1	0.6069949520442606
6	69	101	n/a	n/a	n/a	j	1	0.11	2	f	0	0.6697394597613311
6	70	121	n/a	n/a	n/a	f	1	0.12	2	f	1	2.060060018965487
6	71	101	n/a	n/a	n/a	f	1	0.13	2	f	1	0.4729709387556795
7	0	111	f	1	3.900822452544162	f	11	0.1	0	f	1	0.7162478852806089
7	1	71	n/a	n/a	n/a	f	11	0.11	0	f	1	0.7667582403491906
7	2	71	n/a	n/a	n/a	j	11	0.12	0	f	0	0.9956576626809692
7	3	131	n/a	n/a	n/a	f	11	0.13	1	f	1	0.9043020813915064
7	4	91	n/a	n/a	n/a	f	11	0.12	1	f	1	0.9148450289339962
7	5	91	n/a	n/a	n/a	f	11	0.11	1	f	1	0.886611996152169
7	6	91	n/a	n/a	n/a	f	11	0.1	1	f	1	0.8838339950470981
7	7	91	n/a	n/a	n/a	f	11	0.09000000000000002	0	f	1	0.8569389301619594
7	8	71	n/a	n/a	n/a	j	11	0.1	0	f	0	0.7647129427368782
7	9	131	n/a	n/a	n/a	f	11	0.11	0	f	1	0.8167557029701129
7	10	71	n/a	n/a	n/a	f	11	0.12	0	f	1	0.9636350988348568
7	11	71	n/a	n/a	n/a	f	11	0.13	1	f	1	0.6465743403250599
7	12	91	n/a	n/a	n/a	f	11	0.12	0	f	1	0.7144161265478033
7	13	71	n/a	n/a	n/a	f	11	0.13	0	f	1	0.8454448935699475
7	14	71	n/a	n/a	n/a	j	11	0.14	0	f	0	0.8486134798049534
7	15	131	n/a	n/a	n/a	f	11	0.13	0	f	1	0.8362379182326549
7	16	71	n/a	n/a	n/a	f	11	0.14	0	f	1	0.9272984224353422
7	17	71	n/a	n/a	n/a	f	11	0.15	1	f	1	0.8672418246542293
7	18	91	n/a	n/a	n/a	f	11	0.14	1	f	1	0.926239851201899
7	19	91	n/a	n/a	n/a	f	11	0.13	1	f	1	0.8117151590931826
7	20	91	n/a	n/a	n/a	j	11	0.12	1	f	0	0.792815115245503
7	21	131	n/a	n/a	n/a	f	11	0.13	0	f	1	0.814756876437059
7	22	71	n/a	n/a	n/a	f	11	0.14	0	f	1	0.8185321525679683
7	23	71	n/a	n/a	n/a	f	11	0.15	0	f	1	0.9522032137456335
7	24	71	n/a	n/a	n/a	f	11	0.16	1	f	1	0.9180481121047706
7	25	91	n/a	n/a	n/a	f	11	0.15	1	f	1	0.8838930104648171
7	26	91	n/a	n/a	n/a	j	11	0.14	1	f	0	0.8658072083198931
7	27	131	n/a	n/a	n/a	f	11	0.13	1	f	1	0.8938825815566815
7	28	91	n/a	n/a	n/a	f	11	0.12	1	f	1	0.8705101954128622
7	29	91	n/a	n/a	n/a	f	11	0.11	0	f	1	0.8596955488692402
7	30	71	n/a	n/a	n/a	f	11	0.12	0	f	1	0.8313219624596968
7	31	71	n/a	n/a	n/a	f	11	0.13	0	f	1	0.8850878588464184
7	32	71	n/a	n/a	n/a	j	11	0.14	0	f	0	0.8885096126705321
7	33	131	n/a	n/a	n/a	f	11	0.13	1	f	1	0.8874986529090165
7	34	91	n/a	n/a	n/a	f	11	0.12	1	f	1	0.8802919295994798
7	35	91	n/a	n/a	n/a	f	11	0.11	1	f	1	0.8762001939812762
7	36	91	n/a	n/a	n/a	f	11	0.1	0	f	1	0.8192198104779891
7	37	71	n/a	n/a	n/a	f	11	0.11	0	f	1	0.9093055624452973
7	38	71	n/a	n/a	n/a	j	11	0.12	0	f	0	0.875227722535783
7	39	131	n/a	n/a	n/a	f	11	0.11	1	f	1	0.792269151358596
7	40	91	n/a	n/a	n/a	f	11	0.1	0	f	1	0.9241429507364955
7	41	71	n/a	n/a	n/a	f	11	0.11	1	f	1	0.9692529674493926
7	42	91	n/a	n/a	n/a	f	11	0.1	1	f	1	0.7645598447697921
7	43	91	n/a	n/a	n/a	f	11	0.09000000000000002	0	f	1	0.8891542206856684
7	44	71	n/a	n/a	n/a	j	11	0.1	1	j	1	0.8459204380942538
7	45	91	n/a	n/a	n/a	f	11	0.09000000000000002	0	f	1	0.9458962617291036
7	46	71	n/a	n/a	n/a	f	11	0.1	1	f	1	0.8468347494181216
7	47	91	n/a	n/a	n/a	f	11	0.09000000000000002	0	f	1	0.8503773850634389
7	48	71	n/a	n/a	n/a	f	11	0.1	0	f	1	0.8212314664506266
7	49	71	n/a	n/a	n/a	f	11	0.11	0	j	0	0.8404958663541038
7	50	131	n/a	n/a	n/a	j	11	0.12	0	f	0	0.8762278485482966
7	51	131	n/a	n/a	n/a	f	11	0.13	1	f	1	0.8911712935323521
7	52	91	n/a	n/a	n/a	f	11	0.12	1	f	1	0.8955361536427517
7	53	91	n/a	n/a	n/a	f	11	0.11	1	f	1	0.9094757663306154
7	54	91	n/a	n/a	n/a	f	11	0.1	1	j	0	0.8094326594173253
7	55	131	n/a	n/a	n/a	f	11	0.09000000000000002	0	f	1	0.8599284744541364
7	56	71	n/a	n/a	n/a	j	11	0.1	0	f	0	0.8964883830858525
7	57	131	n/a	n/a	n/a	f	11	0.11	1	f	1	0.8280647105475509
7	58	91	n/a	n/a	n/a	f	11	0.1	0	f	1	0.9043599564147371
7	59	71	n/a	n/a	n/a	f	11	0.11	1	f	1	0.7662812703310919
7	60	91	n/a	n/a	n/a	f	11	0.1	1	j	0	0.9548717369743827
7	61	131	n/a	n/a	n/a	f	11	0.11	1	j	0	1.049207169204237
7	62	131	n/a	n/a	n/a	j	11	0.1	1	j	1	0.7479160715238322
7	63	91	n/a	n/a	n/a	f	11	0.09000000000000002	0	f	1	0.8979988356577451
7	64	71	n/a	n/a	n/a	f	11	0.1	1	f	1	0.8859283296242211
7	65	91	n/a	n/a	n/a	f	11	0.09000000000000002	0	f	1	0.8605702314825976
7	66	71	n/a	n/a	n/a	f	11	0.1	0	j	0	0.8170436525924742
7	67	131	n/a	n/a	n/a	f	11	0.11	0	f	1	0.8479976667522351
7	68	71	n/a	n/a	n/a	j	11	0.12	0	f	0	0.8749275136715369
7	69	131	n/a	n/a	n/a	f	11	0.13	1	f	1	0.9185572982687518
7	70	91	n/a	n/a	n/a	f	11	0.12	1	f	1	0.8897030355592506
7	71	91	n/a	n/a	n/a	f	11	0.11	1	f	1	0.8791444075905019
8	0	89	f	1	1.06259369053987	f	9	0.1	0	f	1	0.856999085973257
8	1	69	n/a	n/a	n/a	j	9	0.11	0	f	0	0.9398347796386588
8	2	129	n/a	n/a	n/a	f	9	0.12	1	f	1	0.9520198953232466
8	3	89	n/a	n/a	n/a	f	9	0.11	1	f	1	0.9154659737632755
8	4	89	n/a	n/a	n/a	f	9	0.1	1	f	1	0.8559482124037459
8	5	89	n/a	n/a	n/a	j	9	0.09000000000000001	0	j	1	0.9411259913586036
8	6	69	n/a	n/a	n/a	f	9	0.1	1	f	1	0.8643919786927654
8	7	89	n/a	n/a	n/a	f	9	0.09000000000000001	0	f	1	0.9412109507529749
8	8	69	n/a	n/a	n/a	f	9	0.1	1	f	1	0.9377809290681398
8	9	89	n/a	n/a	n/a	j	9	0.09000000000000001	1	j	1	0.9900409344627406
8	10	89	n/a	n/a	n/a	f	9	0.08000000000000002	1	f	1	0.9144541587056665
8	11	89	n/a	n/a	n/a	f	9	0.07000000000000002	0	f	1	0.9504475763478695
8	12	69	n/a	n/a	n/a	f	9	0.08000000000000002	1	f	1	0.8912129179334443
8	13	89	n/a	n/a	n/a	j	9	0.07000000000000002	0	j	1	0.9444884446666038
8	14	69	n/a	n/a	n/a	f	9	0.08000000000000002	1	f	1	0.7903920619419296
8	15	89	n/a	n/a	n/a	f	9	0.07000000000000002	0	f	1	0.9701627171953078
8	16	69	n/a	n/a	n/a	f	9	0.08000000000000002	1	f	1	0.9828299346727363
8	17	89	n/a	n/a	n/a	j	9	0.07000000000000002	1	j	1	0.9150155179186186
8	18	89	n/a	n/a	n/a	f	9	0.06000000000000002	0	f	1	0.8188206723880285
8	19	69	n/a	n/a	n/a	f	9	0.07000000000000002	0	f	1	0.8799161695969815
8	20	69	n/a	n/a	n/a	f	9	0.08000000000000002	0	f	1	0.8615053550074663
8	21	69	n/a	n/a	n/a	j	9	0.09000000000000001	0	j	1	0.9858494143218195
8	22	69	n/a	n/a	n/a	f	9	0.1	1	f	1	0.9360526611399109
8	23	89	n/a	n/a	n/a	f	9	0.09000000000000001	1	f	1	0.9627612715175928
8	24	89	n/a	n/a	n/a	f	9	0.08000000000000002	1	f	1	0.9275741128158188
8	25	89	n/a	n/a	n/a	j	9	0.07000000000000002	1	j	1	0.9642312400819719
8	26	89	n/a	n/a	n/a	f	9	0.06000000000000002	1	f	1	0.9464664590004759
8	27	89	n/a	n/a	n/a	f	9	0.05000000000000002	1	f	1	0.8695434259389003
8	28	89	n/a	n/a	n/a	f	9	0.04000000000000001	0	f	1	0.8865133520248492
8	29	69	n/a	n/a	n/a	j	9	0.05000000000000002	0	j	1	1.05370488527933
8	30	69	n/a	n/a	n/a	f	9	0.06000000000000002	2	f	1	0.8753697016563819
8	31	109	n/a	n/a	n/a	f	9	0.07000000000000002	0	f	1	0.9533641353891653
8	32	69	n/a	n/a	n/a	f	9	0.08000000000000002	1	f	1	0.9262361449191303
8	33	89	n/a	n/a	n/a	j	9	0.07000000000000002	1	j	1	1.049181795426193
8	34	89	n/a	n/a	n/a	f	9	0.06000000000000002	2	f	1	0.8697663730717977
8	35	109	n/a	n/a	n/a	f	9	0.07000000000000002	0	f	1	0.9132621613098308
8	36	69	n/a	n/a	n/a	f	9	0.08000000000000002	1	f	1	0.8441000833063299
8	37	89	n/a	n/a	n/a	j	9	0.07000000000000002	0	j	1	0.9606931660146074
8	38	69	n/a	n/a	n/a	f	9	0.08000000000000002	1	f	1	0.8386338871659973
8	39	89	n/a	n/a	n/a	f	9	0.07000000000000002	0	f	1	0.9155686092717588
8	40	69	n/a	n/a	n/a	f	9	0.08000000000000002	1	f	1	0.9027645444493828
8	41	89	n/a	n/a	n/a	j	9	0.07000000000000002	0	j	1	0.8653504803050964
8	42	69	n/a	n/a	n/a	f	9	0.08000000000000002	0	f	1	0.8535405544262176
8	43	69	n/a	n/a	n/a	f	9	0.09000000000000001	0	f	1	0.9716663273984523
8	44	69	n/a	n/a	n/a	f	9	0.1	1	f	1	0.9377153563818865
8	45	89	n/a	n/a	n/a	j	9	0.09000000000000001	1	j	1	0.8248402449789864
8	46	89	n/a	n/a	n/a	f	9	0.08000000000000002	0	f	1	0.8445223143853582
8	47	69	n/a	n/a	n/a	f	9	0.09000000000000001	0	f	1	0.8814870630785663
8	48	69	n/a	n/a	n/a	f	9	0.1	0	f	1	0.9832056946743251
8	49	69	n/a	n/a	n/a	j	9	0.11	1	j	1	0.8935133788236271
8	50	89	n/a	n/a	n/a	f	9	0.1	1	f	1	0.8932687641945449
8	51	89	n/a	n/a	n/a	f	9	0.09000000000000001	0	f	1	0.8897075971372033
8	52	69	n/a	n/a	n/a	f	9	0.1	1	f	1	0.852333446801822
8	53	89	n/a	n/a	n/a	j	9	0.09000000000000001	0	j	1	0.8564377267603049
8	54	69	n/a	n/a	n/a	f	9	0.1	0	f	1	0.8918241694073004
8	55	69	n/a	n/a	n/a	f	9	0.11	1	f	1	0.9263986511414259
8	56	89	n/a	n/a	n/a	f	9	0.1	1	f	1	0.8520834152986936
8	57	89	n/a	n/a	n/a	j	9	0.09000000000000001	0	j	1	0.8949465696650805
8	58	69	n/a	n/a	n/a	f	9	0.1	0	j	0	0.9486086901488306
8	59	129	n/a	n/a	n/a	f	9	0.09000000000000001	1	f	1	0.976033183200343
8	60	89	n/a	n/a	n/a	f	9	0.08000000000000002	1	f	1	0.9647820506461358
8	61	89	n/a	n/a	n/a	j	9	0.07000000000000002	1	j	1	0.8879020674776257
8	62	89	n/a	n/a	n/a	f	9	0.06000000000000002	0	f	1	0.9397589434020119
8	63	69	n/a	n/a	n/a	f	9	0.07000000000000002	1	f	1	0.9236215053315391
8	64	89	n/a	n/a	n/a	f	9	0.06000000000000002	0	f	1	0.8954648789840576
8	65	69	n/a	n/a	n/a	j	9	0.07000000000000002	0	j	1	0.9225469685752614
8	66	69	n/a	n/a	n/a	f	9	0.08000000000000002	1	f	1	0.9345002990685316
8	67	89	n/a	n/a	n/a	f	9	0.07000000000000002	1	f	1	0.929114500743708
8	68	89	n/a	n/a	n/a	f	9	0.06000000000000002	1	f	1	0.8465473699934591
8	69	89	n/a	n/a	n/a	j	9	0.05000000000000002	0	j	1	0.9473499796722535
8	70	69	n/a	n/a	n/a	f	9	0.06000000000000002	1	f	1	0.8804122412229844
8	71	89	n/a	n/a	n/a	f	9	0.05000000000000002	0	f	1	0.9081928224704825
9	0	70	j	1	0.7517549246513227	j	10	0.1	1	j	1	0.9370764503391911
9	1	90	n/a	n/a	n/a	f	10	0.09000000000000001	1	f	1	0.9487349888440804
9	2	90	n/a	n/a	n/a	j	10	0.08000000000000002	1	j	1	1.02414614384179
9	3	90	n/a	n/a	n/a	j	10	0.07000000000000002	1	j	1	0.9061341252236161
9	4	90	n/a	n/a	n/a	j	10	0.06000000000000002	0	j	1	0.9339546202800193
9	5	70	n/a	n/a	n/a	f	10	0.07000000000000002	1	f	1	0.9489727611062335
9	6	90	n/a	n/a	n/a	j	10	0.06000000000000002	1	j	1	0.9627786625342196
9	7	90	n/a	n/a	n/a	j	10	0.05000000000000002	1	j	1	1.022847234457913
9	8	90	n/a	n/a	n/a	j	10	0.04000000000000001	1	j	1	0.9313476783563601
9	9	90	n/a	n/a	n/a	f	10	0.03000000000000001	0	f	1	0.9677142901127809
9	10	70	n/a	n/a	n/a	j	10	0.04000000000000001	1	j	1	0.9885247799184071
9	11	90	n/a	n/a	n/a	j	10	0.03000000000000001	1	j	1	1.027457564493488
9	12	90	n/a	n/a	n/a	j	10	0.02000000000000001	2	j	1	0.9261719977257599
9	13	110	n/a	n/a	n/a	f	10	0.03000000000000001	2	j	0	0.9393435546890032
9	14	130	n/a	n/a	n/a	j	10	0.04000000000000001	2	f	0	0.9615852396455011
9	15	130	n/a	n/a	n/a	j	10	0.05000000000000002	1	j	1	0.8312213226408858
9	16	90	n/a	n/a	n/a	j	10	0.04000000000000001	0	j	1	0.9322970568127857
9	17	70	n/a	n/a	n/a	f	10	0.05000000000000002	0	f	1	0.8653510505027953
9	18	70	n/a	n/a	n/a	j	10	0.06000000000000002	0	j	1	0.8840520955036482
9	19	70	n/a	n/a	n/a	j	10	0.07000000000000002	0	f	0	1.001191142098833
9	20	130	n/a	n/a	n/a	j	10	0.08000000000000002	0	f	0	0.9020441001975996
9	21	130	n/a	n/a	n/a	f	10	0.07000000000000002	0	f	1	0.9211229008897135
9	22	70	n/a	n/a	n/a	j	10	0.08000000000000002	1	j	1	0.8690154232654095
9	23	90	n/a	n/a	n/a	j	10	0.07000000000000002	0	j	1	1.018585294954391
9	24	70	n/a	n/a	n/a	j	10	0.08000000000000002	1	j	1	0.8866513397633753
9	25	90	n/a	n/a	n/a	f	10	0.07000000000000002	0	f	1	0.9066829400971983
9	26	70	n/a	n/a	n/a	j	10	0.08000000000000002	0	j	1	0.9747180231943275
9	27	70	n/a	n/a	n/a	j	10	0.09000000000000001	1	j	1	0.9323731781487368
9	28	90	n/a	n/a	n/a	j	10	0.08000000000000002	1	j	1	0.9084975929117718
9	29	90	n/a	n/a	n/a	f	10	0.07000000000000002	0	f	1	0.8874778407080157
9	30	70	n/a	n/a	n/a	j	10	0.08000000000000002	0	j	1	0.9144992042893136
9	31	70	n/a	n/a	n/a	j	10	0.09000000000000001	1	j	1	0.9500823649959784
9	32	90	n/a	n/a	n/a	j	10	0.08000000000000002	1	j	1	0.7799380651722458
9	33	90	n/a	n/a	n/a	f	10	0.07000000000000002	1	j	0	0.9692888898771344
9	34	130	n/a	n/a	n/a	j	10	0.08000000000000002	1	f	0	1.148982568498468
9	35	130	n/a	n/a	n/a	j	10	0.07000000000000002	2	j	1	0.233973892947688
9	36	110	n/a	n/a	n/a	j	10	0.08000000000000002	0	j	1	0.7971973663725294
9	37	70	n/a	n/a	n/a	f	10	0.09000000000000001	0	j	0	0.8737323801915409
9	38	130	n/a	n/a	n/a	j	10	0.1	0	j	1	0.9899428605313005
9	39	70	n/a	n/a	n/a	j	10	0.11	1	j	1	0.9383357310125575
9	40	90	n/a	n/a	n/a	j	10	0.1	1	j	1	0.8069346251722891
9	41	90	n/a	n/a	n/a	f	10	0.09000000000000001	0	f	1	0.8033954107104364
9	42	70	n/a	n/a	n/a	j	10	0.1	0	j	1	0.9120784317756261
9	43	70	n/a	n/a	n/a	j	10	0.11	1	j	1	0.904926162304946
9	44	90	n/a	n/a	n/a	j	10	0.1	1	j	1	0.8598438001590694
9	45	90	n/a	n/a	n/a	f	10	0.09000000000000001	0	f	1	0.8558424408092833
9	46	70	n/a	n/a	n/a	j	10	0.1	0	j	1	0.8107298582090152
9	47	70	n/a	n/a	n/a	j	10	0.11	0	j	1	1.020762023036696
9	48	70	n/a	n/a	n/a	j	10	0.12	1	j	1	0.6965909045557055
9	49	90	n/a	n/a	n/a	f	10	0.11	1	j	0	0.8854636188480072
9	50	130	n/a	n/a	n/a	j	10	0.12	1	j	1	1.36144776508354
9	51	90	n/a	n/a	n/a	j	10	0.11	2	j	1	0.8562635314938234
9	52	110	n/a	n/a	n/a	j	10	0.12	0	j	1	0.7673663557379768
9	53	70	n/a	n/a	n/a	f	10	0.13	0	f	1	0.8672592156708561
9	54	70	n/a	n/a	n/a	j	10	0.14	1	j	1	0.9234359061201758
9	55	90	n/a	n/a	n/a	j	10	0.13	1	j	1	0.8932810234355202
9	56	90	n/a	n/a	n/a	j	10	0.12	1	j	1	0.8831383543765696
9	57	90	n/a	n/a	n/a	f	10	0.11	1	f	1	0.8551239922471723
9	58	90	n/a	n/a	n/a	j	10	0.1	0	j	1	0.8470813597377855
9	59	70	n/a	n/a	n/a	j	10	0.11	0	j	1	0.9900614615644372
9	60	70	n/a	n/a	n/a	j	10	0.12	1	j	1	0.8290277737387441
9	61	90	n/a	n/a	n/a	f	10	0.11	0	f	1	0.8560673836327624
9	62	70	n/a	n/a	n/a	j	10	0.12	0	j	1	0.8427934762594305
9	63	70	n/a	n/a	n/a	j	10	0.13	0	j	1	0.8719488031274523
9	64	70	n/a	n/a	n/a	j	10	0.14	1	j	1	0.8917089895594472
9	65	90	n/a	n/a	n/a	f	10	0.13	1	f	1	0.8958109887280443
9	66	90	n/a	n/a	n/a	j	10	0.12	1	j	1	0.8848332657653373
9	67	90	n/a	n/a	n/a	j	10	0.11	1	j	1	0.889409669062843
9	68	90	n/a	n/a	n/a	j	10	0.1	1	j	1	0.8737970975826101
9	69	90	n/a	n/a	n/a	f	10	0.09000000000000002	0	f	1	0.8461334067751523
9	70	70	n/a	n/a	n/a	j	10	0.1	0	j	1	0.8351397182887013
9	71	70	n/a	n/a	n/a	j	10	0.11	0	j	1	0.8982788025168702
10	0	66	j	1	0.05754088742105523	j	6	0.1	2	j	1	0.5748922754810337
10	1	106	n/a	n/a	n/a	f	6	0.11	1	f	1	0.5548301695944247
10	2	86	n/a	n/a	n/a	j	6	0.1	1	j	1	0.6542705779920652
10	3	86	n/a	n/a	n/a	j	6	0.09000000000000001	1	j	1	0.6114912426255614
10	4	86	n/a	n/a	n/a	j	6	0.08000000000000002	1	j	1	0.6426154606706405
10	5	86	n/a	n/a	n/a	f	6	0.07000000000000002	1	f	1	0.5676065798488708
10	6	86	n/a	n/a	n/a	j	6	0.06000000000000002	1	j	1	0.602344423100476
10	7	86	n/a	n/a	n/a	j	6	0.05000000000000002	1	j	1	0.6135924195687039
10	8	86	n/a	n/a	n/a	j	6	0.04000000000000001	1	j	1	0.5521798926774864
10	9	86	n/a	n/a	n/a	f	6	0.03000000000000001	0	f	1	0.5794872101905639
10	10	66	n/a	n/a	n/a	j	6	0.04000000000000001	1	j	1	0.6236199087798013
10	11	86	n/a	n/a	n/a	j	6	0.03000000000000001	2	j	1	0.5463387918316585
10	12	106	n/a	n/a	n/a	j	6	0.04000000000000001	0	j	1	0.631342945718643
10	13	66	n/a	n/a	n/a	f	6	0.05000000000000002	1	f	1	0.5144513647383064
10	14	86	n/a	n/a	n/a	j	6	0.04000000000000001	0	j	1	0.5817774075294437
10	15	66	n/a	n/a	n/a	j	6	0.05000000000000002	1	j	1	0.6173063994956465
10	16	86	n/a	n/a	n/a	j	6	0.04000000000000001	1	j	1	0.5263582241550466
10	17	86	n/a	n/a	n/a	f	6	0.03000000000000001	0	f	1	0.7872186290287573
10	18	66	n/a	n/a	n/a	j	6	0.04000000000000001	2	j	1	0.5693319967904245
10	19	106	n/a	n/a	n/a	j	6	0.05000000000000002	1	j	1	0.9021407486352473
10	20	86	n/a	n/a	n/a	j	6	0.04000000000000001	2	j	1	0.5322201372009658
10	21	106	n/a	n/a	n/a	f	6	0.05000000000000002	0	f	1	0.5847184850535996
10	22	66	n/a	n/a	n/a	j	6	0.06000000000000002	1	j	1	0.5994153197179912
10	23	86	n/a	n/a	n/a	j	6	0.05000000000000002	1	j	1	0.5956294949364747
10	24	86	n/a	n/a	n/a	j	6	0.04000000000000001	1	j	1	0.5825591479879222
10	25	86	n/a	n/a	n/a	f	6	0.03000000000000001	1	f	1	0.5945683578147509
10	26	86	n/a	n/a	n/a	j	6	0.02000000000000001	1	j	1	0.5600183945643948
10	27	86	n/a	n/a	n/a	j	6	0.01000000000000001	0	j	1	0.6558052639475136
10	28	66	n/a	n/a	n/a	j	6	0.02000000000000001	2	j	1	0.5657907866388996
10	29	106	n/a	n/a	n/a	f	6	0.03000000000000001	1	f	1	0.5709730245380342
10	30	86	n/a	n/a	n/a	j	6	0.02000000000000001	1	j	1	0.5547822730231928
10	31	86	n/a	n/a	n/a	j	6	0.01000000000000001	0	j	1	0.5709373872077776
10	32	66	n/a	n/a	n/a	j	6	0.02000000000000001	1	j	1	0.583686427993598
10	33	86	n/a	n/a	n/a	f	6	0.01000000000000001	1	f	1	0.5806640973578396
10	34	86	n/a	n/a	n/a	j	6	1.040834085586084e-17	0	j	1	0.5917113843879633
10	35	66	n/a	n/a	n/a	j	6	0.01000000000000001	1	j	1	0.57063461245707
10	36	86	n/a	n/a	n/a	j	6	1.040834085586084e-17	0	j	1	0.5687495402780769
10	37	66	n/a	n/a	n/a	f	6	0.01000000000000001	0	f	1	0.5555885319645313
10	38	66	n/a	n/a	n/a	j	6	0.02000000000000001	0	j	1	0.5634709390405988
10	39	66	n/a	n/a	n/a	j	6	0.03000000000000001	1	j	1	0.6166389835898372
10	40	86	n/a	n/a	n/a	j	6	0.02000000000000001	2	j	1	0.5413042350264732
10	41	106	n/a	n/a	n/a	f	6	0.03000000000000001	0	f	1	0.5602325036397815
10	42	66	n/a	n/a	n/a	j	6	0.04000000000000001	1	j	1	0.5490851469876361
10	43	86	n/a	n/a	n/a	j	6	0.03000000000000001	1	f	0	0.5932671676428072
10	44	126	n/a	n/a	n/a	j	6	0.04000000000000001	1	j	1	0.6373277362772569
10	45	86	n/a	n/a	n/a	f	6	0.03000000000000001	1	j	0	0.5533294103761364
10	46	126	n/a	n/a	n/a	j	6	0.04000000000000001	1	j	1	0.5581977546771668
10	47	86	n/a	n/a	n/a	j	6	0.03000000000000001	1	j	1	0.5372392986810155
10	48	86	n/a	n/a	n/a	j	6	0.02000000000000001	0	j	1	0.6530951163176724
10	49	66	n/a	n/a	n/a	f	6	0.03000000000000001	2	f	1	0.5952543051316752
10	50	106	n/a	n/a	n/a	j	6	0.04000000000000001	1	j	1	0.5912244359178658
10	51	86	n/a	n/a	n/a	j	6	0.03000000000000001	1	j	1	0.6030782669877226
10	52	86	n/a	n/a	n/a	j	6	0.02000000000000001	2	j	1	0.584252633883807
10	53	106	n/a	n/a	n/a	f	6	0.03000000000000001	1	f	1	0.6849258087813723
10	54	86	n/a	n/a	n/a	j	6	0.02000000000000001	2	j	1	0.5691572313271536
10	55	106	n/a	n/a	n/a	j	6	0.03000000000000001	1	j	1	0.5499492809531148
10	56	86	n/a	n/a	n/a	j	6	0.02000000000000001	0	j	1	0.5947696374514635
10	57	66	n/a	n/a	n/a	f	6	0.03000000000000001	1	f	1	0.565848946760525
10	58	86	n/a	n/a	n/a	j	6	0.02000000000000001	0	j	1	0.6358463637661771
10	59	66	n/a	n/a	n/a	j	6	0.03000000000000001	2	j	1	0.5369311070544427
10	60	106	n/a	n/a	n/a	j	6	0.04000000000000001	0	j	1	0.5881202819737155
10	61	66	n/a	n/a	n/a	f	6	0.05000000000000002	1	f	1	0.5679261754185063
10	62	86	n/a	n/a	n/a	j	6	0.04000000000000001	1	j	1	0.5815946593038461
10	63	86	n/a	n/a	n/a	j	6	0.03000000000000001	1	j	1	0.5928150012059632
10	64	86	n/a	n/a	n/a	j	6	0.02000000000000001	1	j	1	0.5476126125349765
10	65	86	n/a	n/a	n/a	f	6	0.01000000000000001	0	f	1	0.5298241682676235
10	66	66	n/a	n/a	n/a	j	6	0.02000000000000001	0	j	1	0.6166469663512544
10	67	66	n/a	n/a	n/a	j	6	0.03000000000000001	1	j	1	0.5724945959545948
10	68	86	n/a	n/a	n/a	j	6	0.02000000000000001	1	j	1	0.5526637050625141
10	69	86	n/a	n/a	n/a	f	6	0.01000000000000001	0	f	1	0.5630159216179891
10	70	66	n/a	n/a	n/a	j	6	0.02000000000000001	0	j	1	0.5835681120597656
10	71	66	n/a	n/a	n/a	j	6	0.03000000000000001	1	j	1	0.6114102746123535
11	0	83	f	1	2.471546585971737	f	3	0.1	2	f	1	0.3988250515030813
11	1	103	n/a	n/a	n/a	f	3	0.11	1	f	1	0.3766475137399539
11	2	83	n/a	n/a	n/a	j	3	0.1	1	f	0	0.3815378106355638
11	3	123	n/a	n/a	n/a	f	3	0.09000000000000001	1	f	1	0.3823945320355051
11	4	83	n/a	n/a	n/a	f	3	0.08000000000000002	1	j	0	0.4213980210734007
11	5	123	n/a	n/a	n/a	f	3	0.07000000000000002	1	f	1	0.4021852240221051
11	6	83	n/a	n/a	n/a	f	3	0.06000000000000002	1	f	1	0.2623788402070204
11	7	83	n/a	n/a	n/a	f	3	0.05000000000000002	0	f	1	0.09268100484769093
11	8	63	n/a	n/a	n/a	j	3	0.06000000000000002	0	f	0	0.4085286686640757
11	9	123	n/a	n/a	n/a	f	3	0.07000000000000002	1	f	1	0.8306593932302349
11	10	83	n/a	n/a	n/a	f	3	0.06000000000000002	2	f	1	0.410273757412142
11	11	103	n/a	n/a	n/a	f	3	0.07000000000000002	1	f	1	0.4070173607960896
11	12	83	n/a	n/a	n/a	f	3	0.06000000000000002	1	f	1	0.4523132618196541
11	13	83	n/a	n/a	n/a	f	3	0.05000000000000002	2	f	1	0.4665872952064092
11	14	103	n/a	n/a	n/a	j	3	0.06000000000000002	2	f	0	0.3604824211033701
11	15	123	n/a	n/a	n/a	f	3	0.07000000000000002	1	f	1	0.4913797576546131
11	16	83	n/a	n/a	n/a	f	3	0.06000000000000002	2	f	1	0.4164261859677936
11	17	103	n/a	n/a	n/a	f	3	0.07000000000000002	1	f	1	0.3880300767659719
11	18	83	n/a	n/a	n/a	f	3	0.06000000000000002	1	f	1	0.4019423199843004
11	19	83	n/a	n/a	n/a	f	3	0.05000000000000002	1	f	1	0.4084687979502633
11	20	83	n/a	n/a	n/a	j	3	0.04000000000000001	1	j	1	0.3952556165850183
11	21	83	n/a	n/a	n/a	f	3	0.03000000000000001	1	f	1	0.4393797622160491
11	22	83	n/a	n/a	n/a	f	3	0.02000000000000001	2	f	1	0.4371351806576058
11	23	103	n/a	n/a	n/a	f	3	0.03000000000000001	2	f	1	0.361962938317447
11	24	103	n/a	n/a	n/a	f	3	0.04000000000000001	1	f	1	0.4311338543793681
11	25	83	n/a	n/a	n/a	f	3	0.03000000000000001	2	f	1	0.3800766801296049
11	26	103	n/a	n/a	n/a	j	3	0.04000000000000001	1	j	1	0.3793137561806361
11	27	83	n/a	n/a	n/a	f	3	0.03000000000000001	1	f	1	0.4552124298443232
11	28	83	n/a	n/a	n/a	f	3	0.02000000000000001	2	f	1	0.3617593778926675
11	29	103	n/a	n/a	n/a	f	3	0.03000000000000001	1	f	1	0.3792000018247563
11	30	83	n/a	n/a	n/a	f	3	0.02000000000000001	1	f	1	0.3680899930950545
11	31	83	n/a	n/a	n/a	f	3	0.01000000000000001	0	f	1	0.3789639401547902
11	32	63	n/a	n/a	n/a	j	3	0.02000000000000001	1	j	1	0.4067493680786356
11	33	83	n/a	n/a	n/a	f	3	0.01000000000000001	2	f	1	0.3659403493820719
11	34	103	n/a	n/a	n/a	f	3	0.02000000000000001	1	f	1	0.4179004310126402
11	35	83	n/a	n/a	n/a	f	3	0.01000000000000001	2	f	1	0.3908995945330389
11	36	103	n/a	n/a	n/a	f	3	0.02000000000000001	1	f	1	0.3955156265419646
11	37	83	n/a	n/a	n/a	f	3	0.01000000000000001	1	f	1	0.3668101853199914
11	38	83	n/a	n/a	n/a	j	3	1.040834085586084e-17	0	j	1	0.3968370587172103
11	39	63	n/a	n/a	n/a	f	3	0.01000000000000001	2	f	1	0.4598452826730863
11	40	103	n/a	n/a	n/a	f	3	0.02000000000000001	2	f	1	0.3783415698335375
11	41	103	n/a	n/a	n/a	f	3	0.03000000000000001	1	f	1	0.4126480588492996
11	42	83	n/a	n/a	n/a	f	3	0.02000000000000001	2	f	1	0.4405361222825377
11	43	103	n/a	n/a	n/a	f	3	0.03000000000000001	2	f	1	0.4409218607361254
11	44	103	n/a	n/a	n/a	j	3	0.04000000000000001	2	f	0	0.4696121917304481
11	45	123	n/a	n/a	n/a	f	3	0.05000000000000002	2	j	0	0.1937319354374267
11	46	123	n/a	n/a	n/a	f	3	0.06000000000000002	0	f	1	0.4798301268292562
11	47	63	n/a	n/a	n/a	f	3	0.07000000000000002	2	f	1	0.4136151134207466
11	48	103	n/a	n/a	n/a	f	3	0.08000000000000002	1	f	1	0.4035311746802108
11	49	83	n/a	n/a	n/a	f	3	0.07000000000000002	1	f	1	0.4105026916167844
11	50	83	n/a	n/a	n/a	j	3	0.06000000000000002	1	f	0	0.3837128281265905
11	51	123	n/a	n/a	n/a	f	3	0.05000000000000002	1	f	1	0.5954635675307145
11	52	83	n/a	n/a	n/a	f	3	0.04000000000000001	2	f	1	0.4262193240992929
11	53	103	n/a	n/a	n/a	f	3	0.05000000000000002	1	f	1	0.3834208871248848
11	54	83	n/a	n/a	n/a	f	3	0.04000000000000001	1	f	1	0.3873255980370232
11	55	83	n/a	n/a	n/a	f	3	0.03000000000000001	1	f	1	0.3534712754571956
11	56	83	n/a	n/a	n/a	j	3	0.02000000000000001	0	j	1	0.4292738708809338
11	57	63	n/a	n/a	n/a	f	3	0.03000000000000001	2	f	1	0.3774395177497354
11	58	103	n/a	n/a	n/a	f	3	0.04000000000000001	1	f	1	0.4381344513758449
11	59	83	n/a	n/a	n/a	f	3	0.03000000000000001	2	f	1	0.396336995710044
11	60	103	n/a	n/a	n/a	f	3	0.04000000000000001	1	f	1	0.3852472289836442
11	61	83	n/a	n/a	n/a	f	3	0.03000000000000001	1	f	1	0.3413933568599532
11	62	83	n/a	n/a	n/a	j	3	0.02000000000000001	0	j	1	0.3937263475045256
11	63	63	n/a	n/a	n/a	f	3	0.03000000000000001	1	f	1	0.3572471217867133
11	64	83	n/a	n/a	n/a	f	3	0.02000000000000001	0	f	1	0.488315802618672
11	65	63	n/a	n/a	n/a	f	3	0.03000000000000001	2	f	1	0.4121548382090623
11	66	103	n/a	n/a	n/a	f	3	0.04000000000000001	1	f	1	0.4403268598834984
11	67	83	n/a	n/a	n/a	f	3	0.03000000000000001	2	f	1	0.3773531328633908
11	68	103	n/a	n/a	n/a	j	3	0.04000000000000001	1	j	1	0.4061272828557776
11	69	83	n/a	n/a	n/a	f	3	0.03000000000000001	1	f	1	0.3477476352491067
11	70	83	n/a	n/a	n/a	f	3	0.02000000000000001	0	f	1	0.4791065464914936
11	71	63	n/a	n/a	n/a	f	3	0.03000000000000001	2	f	1	0.3895830090341406
12	0	102	j	1	1.057760698468883	j	2	0.02000000000000001	1	j	1	0.3573146901635482
12	1	82	n/a	n/a	n/a	f	2	0.01000000000000001	1	j	0	0.3931159513258535
12	2	122	n/a	n/a	n/a	j	2	0.02000000000000001	1	j	1	0.6042123893603275
12	3	82	n/a	n/a	n/a	j	2	0.01000000000000001	2	j	1	0.3945882006801185
12	4	102	n/a	n/a	n/a	j	2	0.02000000000000001	1	j	1	0.3913714327745765
12	5	82	n/a	n/a	n/a	f	2	0.01000000000000001	1	f	1	0.496896416252639
12	6	82	n/a	n/a	n/a	j	2	1.040834085586084e-17	2	j	1	0.3880486081761774
12	7	102	n/a	n/a	n/a	j	2	0.01000000000000001	1	j	1	0.3947013848382994
12	8	82	n/a	n/a	n/a	j	2	1.040834085586084e-17	2	j	1	0.4139281517227573
12	9	102	n/a	n/a	n/a	f	2	0.01000000000000001	2	f	1	0.3941807947294365
12	10	102	n/a	n/a	n/a	j	2	0.02000000000000001	1	j	1	0.4379434352904354
12	11	82	n/a	n/a	n/a	j	2	0.01000000000000001	2	j	1	0.3944918373408655
12	12	102	n/a	n/a	n/a	j	2	0.02000000000000001	1	j	1	0.414816804169277
12	13	82	n/a	n/a	n/a	f	2	0.01000000000000001	2	f	1	0.3942483631062714
12	14	102	n/a	n/a	n/a	j	2	0.02000000000000001	1	j	1	0.4235613495202415
12	15	82	n/a	n/a	n/a	j	2	0.01000000000000001	2	j	1	0.3817513495141611
12	16	102	n/a	n/a	n/a	j	2	0.02000000000000001	1	j	1	0.4028323979246125
12	17	82	n/a	n/a	n/a	f	2	0.01000000000000001	2	f	1	0.415503891881599
12	18	102	n/a	n/a	n/a	j	2	0.02000000000000001	2	j	1	0.3876993623489398
12	19	102	n/a	n/a	n/a	j	2	0.03000000000000001	1	j	1	0.4074846374596746
12	20	82	n/a	n/a	n/a	j	2	0.02000000000000001	1	j	1	0.4056745462221443
12	21	82	n/a	n/a	n/a	f	2	0.01000000000000001	2	f	1	0.4352412704220114
12	22	102	n/a	n/a	n/a	j	2	0.02000000000000001	2	j	1	0.4176335786896743
12	23	102	n/a	n/a	n/a	j	2	0.03000000000000001	2	j	1	0.393257075150359
12	24	102	n/a	n/a	n/a	j	2	0.04000000000000001	1	j	1	0.3997424989120191
12	25	82	n/a	n/a	n/a	f	2	0.03000000000000001	1	f	1	0.3963204599895107
12	26	82	n/a	n/a	n/a	j	2	0.02000000000000001	1	j	1	0.392634989927501
12	27	82	n/a	n/a	n/a	j	2	0.01000000000000001	1	j	1	0.3719533647063145
12	28	82	n/a	n/a	n/a	j	2	1.040834085586084e-17	0	j	1	0.4335412272585017
12	29	62	n/a	n/a	n/a	f	2	0.01000000000000001	2	f	1	0.3814959011369865
12	30	102	n/a	n/a	n/a	j	2	0.02000000000000001	1	j	1	0.424370174348951
12	31	82	n/a	n/a	n/a	j	2	0.01000000000000001	2	j	1	0.3653313786971921
12	32	102	n/a	n/a	n/a	j	2	0.02000000000000001	1	j	1	0.442425756038574
12	33	82	n/a	n/a	n/a	f	2	0.01000000000000001	2	f	1	0.4273984920564544
12	34	102	n/a	n/a	n/a	j	2	0.02000000000000001	2	j	1	0.408499588603263
12	35	102	n/a	n/a	n/a	j	2	0.03000000000000001	1	j	1	0.4069720301131383
12	36	82	n/a	n/a	n/a	j	2	0.02000000000000001	2	j	1	0.4103758227229264
12	37	102	n/a	n/a	n/a	f	2	0.03000000000000001	1	f	1	0.4313528101311022
12	38	82	n/a	n/a	n/a	j	2	0.02000000000000001	2	j	1	0.4514397195998754
12	39	102	n/a	n/a	n/a	j	2	0.03000000000000001	2	j	1	0.312319283101715
12	40	102	n/a	n/a	n/a	j	2	0.04000000000000001	0	j	1	0.4192626322928845
12	41	62	n/a	n/a	n/a	f	2	0.05000000000000002	1	f	1	0.3924302891064144
12	42	82	n/a	n/a	n/a	j	2	0.04000000000000001	1	j	1	0.3890527255716734
12	43	82	n/a	n/a	n/a	j	2	0.03000000000000001	1	j	1	0.3931763922364553
12	44	82	n/a	n/a	n/a	j	2	0.02000000000000001	1	j	1	0.3491352103083045
12	45	82	n/a	n/a	n/a	f	2	0.01000000000000001	0	f	1	0.4099932203544085
12	46	62	n/a	n/a	n/a	j	2	0.02000000000000001	2	j	1	0.3830394251499456
12	47	102	n/a	n/a	n/a	j	2	0.03000000000000001	1	j	1	0.4520646558084991
12	48	82	n/a	n/a	n/a	j	2	0.02000000000000001	2	j	1	0.3936907101751785
12	49	102	n/a	n/a	n/a	f	2	0.03000000000000001	1	f	1	0.4535893633119485
12	50	82	n/a	n/a	n/a	j	2	0.02000000000000001	2	j	1	0.3619521045693546
12	51	102	n/a	n/a	n/a	j	2	0.03000000000000001	1	j	1	0.4160318945541803
12	52	82	n/a	n/a	n/a	j	2	0.02000000000000001	2	j	1	0.4038978115249847
12	53	102	n/a	n/a	n/a	f	2	0.03000000000000001	1	f	1	0.3822631015646039
12	54	82	n/a	n/a	n/a	j	2	0.02000000000000001	1	j	1	0.3850439536563499
12	55	82	n/a	n/a	n/a	j	2	0.01000000000000001	1	j	1	0.3896414542541606
12	56	82	n/a	n/a	n/a	j	2	1.040834085586084e-17	2	j	1	0.4118047370848217
12	57	102	n/a	n/a	n/a	f	2	0.01000000000000001	2	f	1	0.4089463381642418
12	58	102	n/a	n/a	n/a	j	2	0.02000000000000001	1	j	1	0.3662511068951062
12	59	82	n/a	n/a	n/a	j	2	0.01000000000000001	0	j	1	0.3699593848486984
12	60	62	n/a	n/a	n/a	j	2	0.02000000000000001	1	j	1	0.4125591080746744
12	61	82	n/a	n/a	n/a	f	2	0.01000000000000001	2	f	1	0.4667272786364265
12	62	102	n/a	n/a	n/a	j	2	0.02000000000000001	2	j	1	0.4226872371036734
12	63	102	n/a	n/a	n/a	j	2	0.03000000000000001	2	j	1	0.403389480658916
12	64	102	n/a	n/a	n/a	j	2	0.04000000000000001	1	j	1	0.4102215843622616
12	65	82	n/a	n/a	n/a	f	2	0.03000000000000001	1	f	1	0.4066222140872924
12	66	82	n/a	n/a	n/a	j	2	0.02000000000000001	2	j	1	0.388402130484792
12	67	102	n/a	n/a	n/a	j	2	0.03000000000000001	1	j	1	0.3866792794306093
12	68	82	n/a	n/a	n/a	j	2	0.02000000000000001	1	j	1	0.39243884206644
12	69	82	n/a	n/a	n/a	f	2	0.01000000000000001	2	f	1	0.3686410887567035
12	70	102	n/a	n/a	n/a	j	2	0.02000000000000001	1	j	1	0.4204013162434421
12	71	82	n/a	n/a	n/a	j	2	0.01000000000000001	2	j	1	0.3367448236067503
13	0	108	j	1	0.986072646554021	j	8	0.08000000000000003	0	j	1	0.4883574270188547
13	1	68	n/a	n/a	n/a	j	8	0.09000000000000002	0	j	1	0.5963108806754462
13	2	68	n/a	n/a	n/a	f	8	0.1	1	f	1	0.5202705129886454
13	3	88	n/a	n/a	n/a	j	8	0.09000000000000002	1	j	1	0.5803168472193647
13	4	88	n/a	n/a	n/a	j	8	0.08000000000000003	1	j	1	0.5609894405170053
13	5	88	n/a	n/a	n/a	j	8	0.07000000000000003	1	j	1	0.5958949217656482
13	6	88	n/a	n/a	n/a	j	8	0.06000000000000003	1	f	0	0.640829602818485
13	7	128	n/a	n/a	n/a	j	8	0.05000000000000003	2	j	1	0.6421467585141727
13	8	108	n/a	n/a	n/a	f	8	0.06000000000000003	2	j	0	0.7170780925071085
13	9	128	n/a	n/a	n/a	j	8	0.05000000000000003	2	j	1	0.7870615396805078
13	10	108	n/a	n/a	n/a	j	8	0.06000000000000003	2	j	1	0.5678281014879758
13	11	108	n/a	n/a	n/a	j	8	0.07000000000000003	1	j	1	0.5230736027742751
13	12	88	n/a	n/a	n/a	j	8	0.06000000000000003	0	j	1	0.5370802136412749
13	13	68	n/a	n/a	n/a	j	8	0.07000000000000003	1	j	1	0.5567833803461326
13	14	88	n/a	n/a	n/a	f	8	0.06000000000000003	1	f	1	0.5120132012070826
13	15	88	n/a	n/a	n/a	j	8	0.05000000000000003	0	j	1	0.5498437944579564
13	16	68	n/a	n/a	n/a	j	8	0.06000000000000003	1	j	1	0.5143835112630768
13	17	88	n/a	n/a	n/a	j	8	0.05000000000000003	0	j	1	0.4776240335868351
13	18	68	n/a	n/a	n/a	j	8	0.06000000000000003	0	j	1	0.5802566914071576
13	19	68	n/a	n/a	n/a	j	8	0.07000000000000003	1	j	1	0.5355326982480619
13	20	88	n/a	n/a	n/a	f	8	0.06000000000000003	1	f	1	0.5378371505194082
13	21	88	n/a	n/a	n/a	j	8	0.05000000000000003	0	j	1	0.5267741830639352
13	22	68	n/a	n/a	n/a	j	8	0.06000000000000003	0	j	1	0.5482258597003238
13	23	68	n/a	n/a	n/a	j	8	0.07000000000000003	1	j	1	0.4581785960490379
13	24	88	n/a	n/a	n/a	j	8	0.06000000000000003	0	j	1	0.5458812085216778
13	25	68	n/a	n/a	n/a	j	8	0.07000000000000003	1	j	1	0.4706106071516842
13	26	88	n/a	n/a	n/a	f	8	0.06000000000000003	0	f	1	0.4915137540128853
13	27	68	n/a	n/a	n/a	j	8	0.07000000000000003	0	j	1	0.5425116277474444
13	28	68	n/a	n/a	n/a	j	8	0.08000000000000003	1	j	1	0.4954218861093977
13	29	88	n/a	n/a	n/a	j	8	0.07000000000000003	0	j	1	0.5355070393707138
13	30	68	n/a	n/a	n/a	j	8	0.08000000000000003	1	j	1	0.5223568648043511
13	31	88	n/a	n/a	n/a	j	8	0.07000000000000003	1	j	1	0.4822449122730177
13	32	88	n/a	n/a	n/a	f	8	0.06000000000000003	0	f	1	0.5072988101692317
13	33	68	n/a	n/a	n/a	j	8	0.07000000000000003	0	j	1	0.446480999031337
13	34	68	n/a	n/a	n/a	j	8	0.08000000000000003	0	j	1	0.5522314955305774
13	35	68	n/a	n/a	n/a	j	8	0.09000000000000002	1	j	1	0.4432528271809133
13	36	88	n/a	n/a	n/a	j	8	0.08000000000000003	0	j	1	0.5053877940154052
13	37	68	n/a	n/a	n/a	j	8	0.09000000000000002	1	j	1	0.5078747094130449
13	38	88	n/a	n/a	n/a	f	8	0.08000000000000003	0	f	1	0.6711846247444555
13	39	68	n/a	n/a	n/a	j	8	0.09000000000000002	1	j	1	0.4211251816795993
13	40	88	n/a	n/a	n/a	j	8	0.08000000000000003	0	j	1	0.489267461864074
13	41	68	n/a	n/a	n/a	j	8	0.09000000000000002	0	j	1	0.4608873181859963
13	42	68	n/a	n/a	n/a	j	8	0.1	0	j	1	0.5202189101364638
13	43	68	n/a	n/a	n/a	j	8	0.11	1	j	1	0.4355933672377432
13	44	88	n/a	n/a	n/a	f	8	0.1	0	f	1	0.4261503302304845
13	45	68	n/a	n/a	n/a	j	8	0.11	0	j	1	0.5189687526190028
13	46	68	n/a	n/a	n/a	j	8	0.12	1	j	1	0.4818814115114947
13	47	88	n/a	n/a	n/a	j	8	0.11	1	j	1	0.5169069192870666
13	48	88	n/a	n/a	n/a	j	8	0.1	1	j	1	0.491898637171289
13	49	88	n/a	n/a	n/a	j	8	0.09000000000000002	0	j	1	0.494507004587831
13	50	68	n/a	n/a	n/a	f	8	0.1	0	j	0	0.5558684988245659
13	51	128	n/a	n/a	n/a	j	8	0.09000000000000002	1	j	1	0.4997579512591983
13	52	88	n/a	n/a	n/a	j	8	0.08000000000000003	0	j	1	0.5039680028103248
13	53	68	n/a	n/a	n/a	j	8	0.09000000000000002	1	j	1	0.4617457501772151
13	54	88	n/a	n/a	n/a	j	8	0.08000000000000003	0	j	1	0.5403933448851603
13	55	68	n/a	n/a	n/a	j	8	0.09000000000000002	1	j	1	0.4896435069640575
13	56	88	n/a	n/a	n/a	f	8	0.08000000000000003	0	f	1	0.6063956747111661
13	57	68	n/a	n/a	n/a	j	8	0.09000000000000002	1	j	1	0.4425329531259194
13	58	88	n/a	n/a	n/a	j	8	0.08000000000000003	0	j	1	0.5570804531243994
13	59	68	n/a	n/a	n/a	j	8	0.09000000000000002	1	j	1	0.4510380156225438
13	60	88	n/a	n/a	n/a	j	8	0.08000000000000003	0	j	1	0.5047186675174089
13	61	68	n/a	n/a	n/a	j	8	0.09000000000000002	1	j	1	0.4695346449016142
13	62	88	n/a	n/a	n/a	f	8	0.08000000000000003	0	f	1	0.4665020507145528
13	63	68	n/a	n/a	n/a	j	8	0.09000000000000002	0	j	1	0.5223779621037465
13	64	68	n/a	n/a	n/a	j	8	0.1	1	j	1	0.4874177419160333
13	65	88	n/a	n/a	n/a	j	8	0.09000000000000002	0	j	1	0.4281725348519103
13	66	68	n/a	n/a	n/a	j	8	0.1	0	j	1	0.4891106576142192
13	67	68	n/a	n/a	n/a	j	8	0.11	1	j	1	0.4471330196101917
13	68	88	n/a	n/a	n/a	f	8	0.1	0	f	1	0.4582909249111253
13	69	68	n/a	n/a	n/a	j	8	0.11	0	j	1	0.4719548472185124
13	70	68	n/a	n/a	n/a	j	8	0.12	1	j	1	0.4622398261126364
13	71	88	n/a	n/a	n/a	j	8	0.11	0	j	1	0.4747981359105324
14	0	72	j	1	0.9611005719643799	j	12	0.2400000000000001	0	j	1	0.9900514831115288
14	1	72	n/a	n/a	n/a	j	12	0.2500000000000001	1	j	1	0.9715126592345769
14	2	92	n/a	n/a	n/a	f	12	0.2400000000000001	1	f	1	0.9541729602187843
14	3	92	n/a	n/a	n/a	j	12	0.2300000000000001	1	j	1	0.8722980489565089
14	4	92	n/a	n/a	n/a	j	12	0.2200000000000001	1	j	1	1.027759483948103
14	5	92	n/a	n/a	n/a	j	12	0.2100000000000001	1	j	1	0.9301094949814797
14	6	92	n/a	n/a	n/a	j	12	0.2000000000000001	1	j	1	0.9110306942893658
14	7	92	n/a	n/a	n/a	j	12	0.1900000000000001	1	j	1	0.9950238884148348
14	8	92	n/a	n/a	n/a	f	12	0.18	1	f	1	0.8629342693693616
14	9	92	n/a	n/a	n/a	j	12	0.17	1	j	1	0.9378998151987616
14	10	92	n/a	n/a	n/a	j	12	0.16	1	j	1	0.9183679927746198
14	11	92	n/a	n/a	n/a	j	12	0.15	1	j	1	0.9387984460981897
14	12	92	n/a	n/a	n/a	j	12	0.14	1	j	1	0.9257665874656595
14	13	92	n/a	n/a	n/a	j	12	0.13	1	j	1	0.9547254813751351
14	14	92	n/a	n/a	n/a	f	12	0.12	1	f	1	0.879768203405547
14	15	92	n/a	n/a	n/a	j	12	0.11	1	j	1	0.8595438763950369
14	16	92	n/a	n/a	n/a	j	12	0.1	0	j	1	0.955513779102148
14	17	72	n/a	n/a	n/a	j	12	0.11	1	j	1	0.9126797047974833
14	18	92	n/a	n/a	n/a	j	12	0.1	1	j	1	0.9575214436936221
14	19	92	n/a	n/a	n/a	j	12	0.09000000000000002	1	j	1	0.964369227822317
14	20	92	n/a	n/a	n/a	f	12	0.08000000000000003	1	f	1	0.9044520432735226
14	21	92	n/a	n/a	n/a	j	12	0.07000000000000003	0	j	1	0.757225682369608
14	22	72	n/a	n/a	n/a	j	12	0.08000000000000003	0	j	1	0.91315838540595
14	23	72	n/a	n/a	n/a	j	12	0.09000000000000002	1	j	1	1.003701435585754
14	24	92	n/a	n/a	n/a	j	12	0.08000000000000003	1	j	1	0.9291461466918918
14	25	92	n/a	n/a	n/a	j	12	0.07000000000000003	1	j	1	0.9510468536800545
14	26	92	n/a	n/a	n/a	f	12	0.06000000000000003	1	f	1	0.8849818021544706
14	27	92	n/a	n/a	n/a	j	12	0.05000000000000003	0	j	1	0.8880662842921083
14	28	72	n/a	n/a	n/a	j	12	0.06000000000000003	0	j	1	0.9065255656496447
14	29	72	n/a	n/a	n/a	j	12	0.07000000000000003	0	j	1	0.9017889369188197
14	30	72	n/a	n/a	n/a	j	12	0.08000000000000003	0	j	1	0.9708061848150464
14	31	72	n/a	n/a	n/a	j	12	0.09000000000000002	1	j	1	0.9063904288968843
14	32	92	n/a	n/a	n/a	f	12	0.08000000000000003	1	f	1	0.8638534273704863
14	33	92	n/a	n/a	n/a	j	12	0.07000000000000003	0	j	1	0.8756168821728352
14	34	72	n/a	n/a	n/a	j	12	0.08000000000000003	0	j	1	0.9934079493486934
14	35	72	n/a	n/a	n/a	j	12	0.09000000000000002	1	j	1	0.9537378997010819
14	36	92	n/a	n/a	n/a	j	12	0.08000000000000003	1	j	1	0.8381993968450843
14	37	92	n/a	n/a	n/a	j	12	0.07000000000000003	0	j	1	0.8899841428137734
14	38	72	n/a	n/a	n/a	f	12	0.08000000000000003	0	j	0	1.112351100110573
14	39	132	n/a	n/a	n/a	j	12	0.09000000000000002	2	j	1	1.019235319843574
14	40	112	n/a	n/a	n/a	j	12	0.1	1	j	1	0.9912848198091524
14	41	92	n/a	n/a	n/a	j	12	0.09000000000000002	1	j	1	0.901359293274254
14	42	92	n/a	n/a	n/a	j	12	0.08000000000000003	0	j	1	0.8851306236419987
14	43	72	n/a	n/a	n/a	j	12	0.09000000000000002	0	j	1	1.049253355183282
14	44	72	n/a	n/a	n/a	f	12	0.1	0	j	0	0.9501393847222062
14	45	132	n/a	n/a	n/a	j	12	0.09000000000000002	1	j	1	0.843996307402449
14	46	92	n/a	n/a	n/a	j	12	0.08000000000000003	0	j	1	0.9040643091284437
14	47	72	n/a	n/a	n/a	j	12	0.09000000000000002	1	j	1	0.9158867793485115
14	48	92	n/a	n/a	n/a	j	12	0.08000000000000003	1	j	1	0.8279047702135358
14	49	92	n/a	n/a	n/a	j	12	0.07000000000000003	0	j	1	0.8650762154184122
14	50	72	n/a	n/a	n/a	f	12	0.08000000000000003	0	j	0	1.040111952532243
14	51	132	n/a	n/a	n/a	j	12	0.09000000000000002	1	j	1	0.8856882765730916
14	52	92	n/a	n/a	n/a	j	12	0.08000000000000003	0	j	1	0.8348035869967134
14	53	72	n/a	n/a	n/a	j	12	0.09000000000000002	0	j	1	0.9265138309901886
14	54	72	n/a	n/a	n/a	j	12	0.1	1	j	1	0.9014950002247133
14	55	92	n/a	n/a	n/a	j	12	0.09000000000000002	1	j	1	0.9306109834824383
14	56	92	n/a	n/a	n/a	f	12	0.08000000000000003	1	f	1	0.8864013082611564
14	57	92	n/a	n/a	n/a	j	12	0.07000000000000003	0	j	1	0.9207676679898213
14	58	72	n/a	n/a	n/a	j	12	0.08000000000000003	1	j	1	0.9561295921557758
14	59	92	n/a	n/a	n/a	j	12	0.07000000000000003	1	j	1	0.8552274830526585
14	60	92	n/a	n/a	n/a	j	12	0.06000000000000003	0	j	1	0.8339183557336582
14	61	72	n/a	n/a	n/a	j	12	0.07000000000000003	0	j	1	0.9042020117703942
14	62	72	n/a	n/a	n/a	f	12	0.08000000000000003	0	f	1	0.8938013284459885
14	63	72	n/a	n/a	n/a	j	12	0.09000000000000002	0	j	1	0.9665088930823913
14	64	72	n/a	n/a	n/a	j	12	0.1	1	j	1	0.8654756386067675
14	65	92	n/a	n/a	n/a	j	12	0.09000000000000002	0	j	1	0.9019152356140694
14	66	72	n/a	n/a	n/a	j	12	0.1	1	j	1	0.9045854694350055
14	67	92	n/a	n/a	n/a	j	12	0.09000000000000002	1	j	1	0.9239419561981776
14	68	92	n/a	n/a	n/a	f	12	0.08000000000000003	1	j	0	0.8438383627581061
14	69	132	n/a	n/a	n/a	j	12	0.07000000000000003	0	j	1	0.8576687826689522
14	70	72	n/a	n/a	n/a	j	12	0.08000000000000003	0	j	1	0.9937112942961903
14	71	72	n/a	n/a	n/a	j	12	0.09000000000000002	1	j	1	0.8696275300362686
15	0	84	j	1	2.511031036407985	j	4	0.04000000000000001	2	j	1	0.3363419792349305
15	1	104	n/a	n/a	n/a	j	4	0.05000000000000002	1	j	1	0.3835041359261595
15	2	84	n/a	n/a	n/a	f	4	0.04000000000000001	1	j	0	0.4080300311497922
15	3	124	n/a	n/a	n/a	j	4	0.03000000000000001	1	j	1	0.4441443306141082
15	4	84	n/a	n/a	n/a	j	4	0.02000000000000001	1	f	0	0.3764525062742905
15	5	124	n/a	n/a	n/a	j	4	0.03000000000000001	1	j	1	0.4131763466202756
15	6	84	n/a	n/a	n/a	j	4	0.02000000000000001	2	j	1	0.3782423555076093
15	7	104	n/a	n/a	n/a	j	4	0.03000000000000001	1	j	1	0.3980897821220424
15	8	84	n/a	n/a	n/a	f	4	0.02000000000000001	1	j	0	0.4582775252747524
15	9	124	n/a	n/a	n/a	j	4	0.01000000000000001	2	j	1	0.4812841298698913
15	10	104	n/a	n/a	n/a	j	4	0.02000000000000001	2	j	1	0.3992495633719955
15	11	104	n/a	n/a	n/a	j	4	0.03000000000000001	1	j	1	0.3989319634920321
15	12	84	n/a	n/a	n/a	j	4	0.02000000000000001	1	j	1	0.4180968639720959
15	13	84	n/a	n/a	n/a	j	4	0.01000000000000001	2	j	1	0.6241268141538967
15	14	104	n/a	n/a	n/a	f	4	0.02000000000000001	2	f	1	0.3407056989508419
15	15	104	n/a	n/a	n/a	j	4	0.03000000000000001	0	j	1	0.4176141919815564
15	16	64	n/a	n/a	n/a	j	4	0.04000000000000001	1	j	1	0.4019959185279731
15	17	84	n/a	n/a	n/a	j	4	0.03000000000000001	1	j	1	0.3899122979573804
15	18	84	n/a	n/a	n/a	j	4	0.02000000000000001	1	j	1	0.4139908734223354
15	19	84	n/a	n/a	n/a	j	4	0.01000000000000001	2	j	1	0.424926401787161
15	20	104	n/a	n/a	n/a	f	4	0.02000000000000001	2	f	1	0.3405865277209159
15	21	104	n/a	n/a	n/a	j	4	0.03000000000000001	0	j	1	0.3936673320868067
15	22	64	n/a	n/a	n/a	j	4	0.04000000000000001	1	j	1	0.3966158221764999
15	23	84	n/a	n/a	n/a	j	4	0.03000000000000001	1	j	1	0.3756260053296501
15	24	84	n/a	n/a	n/a	j	4	0.02000000000000001	1	j	1	0.416875786516357
15	25	84	n/a	n/a	n/a	j	4	0.01000000000000001	2	j	1	0.3802215102359696
15	26	104	n/a	n/a	n/a	f	4	0.02000000000000001	1	f	1	0.3708497478874051
15	27	84	n/a	n/a	n/a	j	4	0.01000000000000001	0	j	1	0.4398285074685191
15	28	64	n/a	n/a	n/a	j	4	0.02000000000000001	2	j	1	0.3715513756296787
15	29	104	n/a	n/a	n/a	j	4	0.03000000000000001	1	j	1	0.3677276327289292
15	30	84	n/a	n/a	n/a	j	4	0.02000000000000001	1	j	1	0.4026000425365055
15	31	84	n/a	n/a	n/a	j	4	0.01000000000000001	2	j	1	0.3846801677982512
15	32	104	n/a	n/a	n/a	f	4	0.02000000000000001	1	f	1	0.3645943987239662
15	33	84	n/a	n/a	n/a	j	4	0.01000000000000001	0	j	1	0.3765659755299566
15	34	64	n/a	n/a	n/a	j	4	0.02000000000000001	1	j	1	0.3732916177004881
15	35	84	n/a	n/a	n/a	j	4	0.01000000000000001	0	j	1	0.4014964257185056
15	36	64	n/a	n/a	n/a	j	4	0.02000000000000001	1	j	1	0.4474554661683214
15	37	84	n/a	n/a	n/a	j	4	0.01000000000000001	2	j	1	0.3468415917859602
15	38	104	n/a	n/a	n/a	f	4	0.02000000000000001	0	f	1	0.4074164988860502
15	39	64	n/a	n/a	n/a	j	4	0.03000000000000001	1	j	1	0.4199086658009037
15	40	84	n/a	n/a	n/a	j	4	0.02000000000000001	2	j	1	0.3431618236963914
15	41	104	n/a	n/a	n/a	j	4	0.03000000000000001	0	j	1	0.346356068809655
15	42	64	n/a	n/a	n/a	j	4	0.04000000000000001	0	f	0	0.4062088210657748
15	43	124	n/a	n/a	n/a	j	4	0.05000000000000002	1	j	1	0.4253129955368422
15	44	84	n/a	n/a	n/a	f	4	0.04000000000000001	1	j	0	0.284292091534553
15	45	124	n/a	n/a	n/a	j	4	0.03000000000000001	0	j	1	0.4324113813663644
15	46	64	n/a	n/a	n/a	j	4	0.04000000000000001	2	j	1	0.3332603480830585
15	47	104	n/a	n/a	n/a	j	4	0.05000000000000002	1	j	1	0.361351971941076
15	48	84	n/a	n/a	n/a	j	4	0.04000000000000001	1	j	1	0.4279837995554772
15	49	84	n/a	n/a	n/a	j	4	0.03000000000000001	2	j	1	0.3371088945641532
15	50	104	n/a	n/a	n/a	f	4	0.04000000000000001	2	j	0	0.3801405422236712
15	51	124	n/a	n/a	n/a	j	4	0.05000000000000002	1	j	1	1.057987351884549
15	52	84	n/a	n/a	n/a	j	4	0.04000000000000001	2	j	1	0.3269405666278544
15	53	104	n/a	n/a	n/a	j	4	0.05000000000000002	0	j	1	0.3950828468123291
15	54	64	n/a	n/a	n/a	j	4	0.06000000000000002	1	j	1	0.4310277976865109
15	55	84	n/a	n/a	n/a	j	4	0.05000000000000002	1	j	1	0.5079462691710432
15	56	84	n/a	n/a	n/a	f	4	0.04000000000000001	2	f	1	0.4490466016532082
15	57	104	n/a	n/a	n/a	j	4	0.05000000000000002	2	j	1	0.4459108017599647
15	58	104	n/a	n/a	n/a	j	4	0.06000000000000002	2	j	1	0.3623925819611031
15	59	104	n/a	n/a	n/a	j	4	0.07000000000000002	1	j	1	0.3986653962674609
15	60	84	n/a	n/a	n/a	j	4	0.06000000000000002	1	j	1	0.3782472021848662
15	61	84	n/a	n/a	n/a	j	4	0.05000000000000002	1	j	1	0.3980447365374857
15	62	84	n/a	n/a	n/a	f	4	0.04000000000000001	1	f	1	0.3559185621452343
15	63	84	n/a	n/a	n/a	j	4	0.03000000000000001	0	j	1	0.3828033634799795
15	64	64	n/a	n/a	n/a	j	4	0.04000000000000001	1	j	1	0.4198393868327912
15	65	84	n/a	n/a	n/a	j	4	0.03000000000000001	2	j	1	0.3626642809613259
15	66	104	n/a	n/a	n/a	j	4	0.04000000000000001	1	j	1	0.3906920427261866
15	67	84	n/a	n/a	n/a	j	4	0.03000000000000001	1	j	1	0.4096605102467947
15	68	84	n/a	n/a	n/a	f	4	0.02000000000000001	2	f	1	0.3737466351230978
15	69	104	n/a	n/a	n/a	j	4	0.03000000000000001	1	j	1	0.4011206657169168
15	70	84	n/a	n/a	n/a	j	4	0.02000000000000001	1	j	1	0.3492828914022539
15	71	84	n/a	n/a	n/a	j	4	0.01000000000000001	0	j	1	0.3934255684434902
16	0	67	f	1	2.032052499203019	f	7	0.1	0	f	1	0.4863343671013354
16	1	67	n/a	n/a	n/a	f	7	0.11	1	f	1	0.6349597070102391
16	2	87	n/a	n/a	n/a	j	7	0.1	1	f	0	0.5361875698135918
16	3	127	n/a	n/a	n/a	f	7	0.09000000000000001	1	f	1	0.5757367376390903
16	4	87	n/a	n/a	n/a	f	7	0.08000000000000002	1	f	1	0.5323284746818899
16	5	87	n/a	n/a	n/a	f	7	0.07000000000000002	1	f	1	0.5083582366987685
16	6	87	n/a	n/a	n/a	f	7	0.06000000000000002	0	f	1	0.5571314857797915
16	7	67	n/a	n/a	n/a	f	7	0.07000000000000002	1	f	1	0.4962766118196669
16	8	87	n/a	n/a	n/a	j	7	0.06000000000000002	0	j	1	0.5523301396588067
16	9	67	n/a	n/a	n/a	f	7	0.07000000000000002	1	f	1	0.503104439042545
16	10	87	n/a	n/a	n/a	f	7	0.06000000000000002	0	f	1	0.5010349080475862
16	11	67	n/a	n/a	n/a	f	7	0.07000000000000002	0	f	1	0.5309748263607617
16	12	67	n/a	n/a	n/a	f	7	0.08000000000000002	1	f	1	0.4641904709769733
16	13	87	n/a	n/a	n/a	f	7	0.07000000000000002	0	f	1	0.5500336701488777
16	14	67	n/a	n/a	n/a	j	7	0.08000000000000002	1	j	1	0.5069005273753646
16	15	87	n/a	n/a	n/a	f	7	0.07000000000000002	0	f	1	0.4810492085944134
16	16	67	n/a	n/a	n/a	f	7	0.08000000000000002	0	f	1	0.4548825707224751
16	17	67	n/a	n/a	n/a	f	7	0.09000000000000001	0	f	1	0.529878337008995
16	18	67	n/a	n/a	n/a	f	7	0.1	1	f	1	0.4727482767211768
16	19	87	n/a	n/a	n/a	f	7	0.09000000000000001	0	f	1	0.540751143673333
16	20	67	n/a	n/a	n/a	j	7	0.1	1	j	1	0.4676119397026923
16	21	87	n/a	n/a	n/a	f	7	0.09000000000000001	0	f	1	0.5036948783172193
16	22	67	n/a	n/a	n/a	f	7	0.1	1	f	1	0.4635008173772803
16	23	87	n/a	n/a	n/a	f	7	0.09000000000000001	0	f	1	0.5267114613643571
16	24	67	n/a	n/a	n/a	f	7	0.1	1	f	1	0.4846685357733804
16	25	87	n/a	n/a	n/a	f	7	0.09000000000000001	0	f	1	0.5316436677603633
16	26	67	n/a	n/a	n/a	j	7	0.1	1	j	1	0.5055468790533268
16	27	87	n/a	n/a	n/a	f	7	0.09000000000000001	1	f	1	0.5172809686964683
16	28	87	n/a	n/a	n/a	f	7	0.08000000000000002	1	f	1	0.4736776982726951
16	29	87	n/a	n/a	n/a	f	7	0.07000000000000002	0	f	1	0.4925344071289146
16	30	67	n/a	n/a	n/a	f	7	0.08000000000000002	0	f	1	0.4874043422805698
16	31	67	n/a	n/a	n/a	f	7	0.09000000000000001	0	f	1	0.5304456832936921
16	32	67	n/a	n/a	n/a	j	7	0.1	1	j	1	0.4475338682923393
16	33	87	n/a	n/a	n/a	f	7	0.09000000000000001	0	f	1	0.5264332050965095
16	34	67	n/a	n/a	n/a	f	7	0.1	1	f	1	0.4843141581686723
16	35	87	n/a	n/a	n/a	f	7	0.09000000000000001	0	f	1	0.4413121607685753
16	36	67	n/a	n/a	n/a	f	7	0.1	0	f	1	0.5742493780571749
16	37	67	n/a	n/a	n/a	f	7	0.11	1	f	1	0.4600668043121914
16	38	87	n/a	n/a	n/a	j	7	0.1	1	f	0	0.5040053507309494
16	39	127	n/a	n/a	n/a	f	7	0.11	1	f	1	0.4911331473349492
16	40	87	n/a	n/a	n/a	f	7	0.1	1	f	1	0.5032632389829814
16	41	87	n/a	n/a	n/a	f	7	0.09000000000000001	1	f	1	0.4757284127590538
16	42	87	n/a	n/a	n/a	f	7	0.08000000000000002	0	f	1	0.5508102788317046
16	43	67	n/a	n/a	n/a	f	7	0.09000000000000001	1	f	1	0.4200631892608726
16	44	87	n/a	n/a	n/a	j	7	0.08000000000000002	0	j	1	0.473183907436578
16	45	67	n/a	n/a	n/a	f	7	0.09000000000000001	0	f	1	0.5170349285735938
16	46	67	n/a	n/a	n/a	f	7	0.1	1	f	1	0.4739351423404514
16	47	87	n/a	n/a	n/a	f	7	0.09000000000000001	0	f	1	0.468906287507707
16	48	67	n/a	n/a	n/a	f	7	0.1	0	f	1	0.5681285954497071
16	49	67	n/a	n/a	n/a	f	7	0.11	1	f	1	0.4836598568008412
16	50	87	n/a	n/a	n/a	j	7	0.1	1	f	0	0.5456596868825727
16	51	127	n/a	n/a	n/a	f	7	0.11	1	f	1	0.4730171247347243
16	52	87	n/a	n/a	n/a	f	7	0.1	0	f	1	0.4679671726025845
16	53	67	n/a	n/a	n/a	f	7	0.11	0	f	1	0.4704694833271788
16	54	67	n/a	n/a	n/a	f	7	0.12	1	f	1	0.5039409184400938
16	55	87	n/a	n/a	n/a	f	7	0.11	1	f	1	0.4587758776906412
16	56	87	n/a	n/a	n/a	j	7	0.1	1	f	0	0.593820544094342
16	57	127	n/a	n/a	n/a	f	7	0.11	1	f	1	0.4615550191902003
16	58	87	n/a	n/a	n/a	f	7	0.1	0	f	1	0.4595325294694703
16	59	67	n/a	n/a	n/a	f	7	0.11	0	f	1	0.463550139441395
16	60	67	n/a	n/a	n/a	f	7	0.12	0	f	1	0.4501944087596712
16	61	67	n/a	n/a	n/a	f	7	0.13	0	f	1	0.5107145769216004
16	62	67	n/a	n/a	n/a	j	7	0.14	0	f	0	0.5247089285485345
16	63	127	n/a	n/a	n/a	f	7	0.13	1	f	1	0.5076050061034039
16	64	87	n/a	n/a	n/a	f	7	0.12	1	f	1	0.46330409931943
16	65	87	n/a	n/a	n/a	f	7	0.11	0	f	1	0.4601434958458412
16	66	67	n/a	n/a	n/a	f	7	0.12	0	f	1	0.5294903177655215
16	67	67	n/a	n/a	n/a	f	7	0.13	1	f	1	0.4782729180815295
16	68	87	n/a	n/a	n/a	j	7	0.12	1	j	1	0.5093703368556817
16	69	87	n/a	n/a	n/a	f	7	0.11	1	f	1	0.4672778041021957
16	70	87	n/a	n/a	n/a	f	7	0.1	0	f	1	0.4653020705572999
16	71	67	n/a	n/a	n/a	f	7	0.11	0	f	1	0.4770199095783028
17	0	65	f	1	2.656105472809941	f	5	0.04000000000000001	0	f	1	0.5193496443971526
17	1	65	n/a	n/a	n/a	j	5	0.05000000000000002	0	j	1	0.5862474690366071
17	2	65	n/a	n/a	n/a	f	5	0.06000000000000002	1	f	1	0.5971849930929238
17	3	85	n/a	n/a	n/a	f	5	0.05000000000000002	1	f	1	0.5682280948740299
17	4	85	n/a	n/a	n/a	f	5	0.04000000000000001	1	f	1	0.6442567735157354
17	5	85	n/a	n/a	n/a	j	5	0.03000000000000001	2	j	1	0.5351780355449591
17	6	105	n/a	n/a	n/a	f	5	0.04000000000000001	0	f	1	0.6111499795588315
17	7	65	n/a	n/a	n/a	f	5	0.05000000000000002	1	f	1	0.5150657522990514
17	8	85	n/a	n/a	n/a	f	5	0.04000000000000001	0	f	1	0.6242368622279173
17	9	65	n/a	n/a	n/a	j	5	0.05000000000000002	1	j	1	0.5907195262352616
17	10	85	n/a	n/a	n/a	f	5	0.04000000000000001	1	f	1	0.651032997886432
17	11	85	n/a	n/a	n/a	f	5	0.03000000000000001	2	f	1	0.5356658393102407
17	12	105	n/a	n/a	n/a	f	5	0.04000000000000001	0	f	1	0.5931077975046719
17	13	65	n/a	n/a	n/a	j	5	0.05000000000000002	1	j	1	0.5738217301041004
17	14	85	n/a	n/a	n/a	f	5	0.04000000000000001	1	f	1	0.536598682046133
17	15	85	n/a	n/a	n/a	f	5	0.03000000000000001	0	f	1	0.5958039753013509
17	16	65	n/a	n/a	n/a	f	5	0.04000000000000001	1	f	1	0.592140172735526
17	17	85	n/a	n/a	n/a	j	5	0.03000000000000001	1	j	1	0.6066331618749246
17	18	85	n/a	n/a	n/a	f	5	0.02000000000000001	2	f	1	0.5782570095780102
17	19	105	n/a	n/a	n/a	f	5	0.03000000000000001	1	f	1	0.5912643497267709
17	20	85	n/a	n/a	n/a	f	5	0.02000000000000001	1	f	1	0.5566168827426736
17	21	85	n/a	n/a	n/a	j	5	0.01000000000000001	0	j	1	0.6096341101128928
17	22	65	n/a	n/a	n/a	f	5	0.02000000000000001	2	f	1	0.574548731624418
17	23	105	n/a	n/a	n/a	f	5	0.03000000000000001	1	f	1	0.593071589977626
17	24	85	n/a	n/a	n/a	f	5	0.02000000000000001	1	f	1	0.4931131573584935
17	25	85	n/a	n/a	n/a	j	5	0.01000000000000001	0	j	1	0.7145963088851204
17	26	65	n/a	n/a	n/a	f	5	0.02000000000000001	2	f	1	0.518614945212903
17	27	105	n/a	n/a	n/a	f	5	0.03000000000000001	0	f	1	0.6124295022355
17	28	65	n/a	n/a	n/a	f	5	0.04000000000000001	1	f	1	0.5926818601428749
17	29	85	n/a	n/a	n/a	j	5	0.03000000000000001	1	j	1	0.5661517215112326
17	30	85	n/a	n/a	n/a	f	5	0.02000000000000001	0	f	1	0.5402889987844901
17	31	65	n/a	n/a	n/a	f	5	0.03000000000000001	0	f	1	0.576204584500374
17	32	65	n/a	n/a	n/a	f	5	0.04000000000000001	1	f	1	0.6052669692126074
17	33	85	n/a	n/a	n/a	j	5	0.03000000000000001	1	j	1	0.5462435688868936
17	34	85	n/a	n/a	n/a	f	5	0.02000000000000001	0	f	1	0.5591938893103361
17	35	65	n/a	n/a	n/a	f	5	0.03000000000000001	1	f	1	0.5983191154646192
17	36	85	n/a	n/a	n/a	f	5	0.02000000000000001	1	f	1	0.6021100720217873
17	37	85	n/a	n/a	n/a	j	5	0.01000000000000001	2	j	1	0.5851874723093715
17	38	105	n/a	n/a	n/a	f	5	0.02000000000000001	1	f	1	0.5331330230319509
17	39	85	n/a	n/a	n/a	f	5	0.01000000000000001	0	f	1	0.5460117836964855
17	40	65	n/a	n/a	n/a	f	5	0.02000000000000001	0	f	1	0.6070419933184894
17	41	65	n/a	n/a	n/a	j	5	0.03000000000000001	1	j	1	0.6095916304166167
17	42	85	n/a	n/a	n/a	f	5	0.02000000000000001	2	f	1	0.5659045409938699
17	43	105	n/a	n/a	n/a	f	5	0.03000000000000001	1	f	1	0.5370548398623214
17	44	85	n/a	n/a	n/a	f	5	0.02000000000000001	0	f	1	0.5808092125635085
17	45	65	n/a	n/a	n/a	j	5	0.03000000000000001	1	j	1	0.5458504178695875
17	46	85	n/a	n/a	n/a	f	5	0.02000000000000001	0	f	1	0.5759428639521502
17	47	65	n/a	n/a	n/a	f	5	0.03000000000000001	1	f	1	0.5223032662606784
17	48	85	n/a	n/a	n/a	f	5	0.02000000000000001	0	f	1	0.6066551144704135
17	49	65	n/a	n/a	n/a	j	5	0.03000000000000001	1	j	1	0.5697485258970119
17	50	85	n/a	n/a	n/a	f	5	0.02000000000000001	1	f	1	0.5423870396443817
17	51	85	n/a	n/a	n/a	f	5	0.01000000000000001	0	f	1	0.5786840873333858
17	52	65	n/a	n/a	n/a	f	5	0.02000000000000001	1	f	1	0.5855786276379149
17	53	85	n/a	n/a	n/a	j	5	0.01000000000000001	1	j	1	0.5825574373966447
17	54	85	n/a	n/a	n/a	f	5	1.040834085586084e-17	0	f	1	0.5722531174105825
17	55	65	n/a	n/a	n/a	f	5	0.01000000000000001	0	f	1	0.5361710340930586
17	56	65	n/a	n/a	n/a	f	5	0.02000000000000001	0	f	1	0.5884053806094016
17	57	65	n/a	n/a	n/a	j	5	0.03000000000000001	1	j	1	0.5934690174763091
17	58	85	n/a	n/a	n/a	f	5	0.02000000000000001	1	f	1	0.5423243179448036
17	59	85	n/a	n/a	n/a	f	5	0.01000000000000001	0	f	1	0.5856829737385851
17	60	65	n/a	n/a	n/a	f	5	0.02000000000000001	1	f	1	0.6140377436377094
17	61	85	n/a	n/a	n/a	j	5	0.01000000000000001	1	f	0	0.5072266802153536
17	62	125	n/a	n/a	n/a	f	5	0.02000000000000001	1	j	0	0.6151416455550134
17	63	125	n/a	n/a	n/a	f	5	0.03000000000000001	1	j	0	0.2212938460315854
17	64	125	n/a	n/a	n/a	f	5	0.02000000000000001	0	f	1	0.6000394006314309
17	65	65	n/a	n/a	n/a	j	5	0.03000000000000001	0	f	0	0.46238209033163
17	66	125	n/a	n/a	n/a	f	5	0.02000000000000001	0	f	1	0.5890958895042786
17	67	65	n/a	n/a	n/a	f	5	0.03000000000000001	1	f	1	0.5221404749399881
17	68	85	n/a	n/a	n/a	f	5	0.02000000000000001	0	f	1	0.596807522499148
17	69	65	n/a	n/a	n/a	j	5	0.03000000000000001	1	j	1	0.547087745947465
17	70	85	n/a	n/a	n/a	f	5	0.02000000000000001	0	f	1	0.586065576107103
17	71	65	n/a	n/a	n/a	f	5	0.03000000000000001	1	f	1	0.5330149921974225
18	0	81	f	1	1.64118939729542	f	1	0.14	2	f	1	0.4004783384907569
18	1	101	n/a	n/a	n/a	j	1	0.15	1	j	1	0.3943988951859865
18	2	81	n/a	n/a	n/a	f	1	0.14	1	f	1	0.4164806398075598
18	3	81	n/a	n/a	n/a	f	1	0.13	1	f	1	0.4202963999459826
18	4	81	n/a	n/a	n/a	f	1	0.12	1	f	1	0.4005193926941502
18	5	81	n/a	n/a	n/a	j	1	0.11	1	j	1	0.365119835510086
18	6	81	n/a	n/a	n/a	f	1	0.1	1	f	1	0.4242393140748391
18	7	81	n/a	n/a	n/a	f	1	0.09000000000000002	1	f	1	0.4352529594661974
18	8	81	n/a	n/a	n/a	f	1	0.08000000000000003	1	f	1	0.4150785247175008
18	9	81	n/a	n/a	n/a	j	1	0.07000000000000003	1	j	1	0.4151871472977291
18	10	81	n/a	n/a	n/a	f	1	0.06000000000000003	1	f	1	0.4353051325169872
18	11	81	n/a	n/a	n/a	f	1	0.05000000000000003	1	f	1	0.4242986145918621
18	12	81	n/a	n/a	n/a	f	1	0.04000000000000003	1	f	1	0.4403334171520328
18	13	81	n/a	n/a	n/a	j	1	0.03000000000000003	2	j	1	0.3587016950250472
18	14	101	n/a	n/a	n/a	f	1	0.04000000000000003	1	f	1	0.4611022825574764
18	15	81	n/a	n/a	n/a	f	1	0.03000000000000003	2	f	1	0.4093856751624116
18	16	101	n/a	n/a	n/a	f	1	0.04000000000000003	1	f	1	0.4360820262982088
18	17	81	n/a	n/a	n/a	j	1	0.03000000000000003	2	j	1	0.395074293853213
18	18	101	n/a	n/a	n/a	f	1	0.04000000000000003	1	f	1	0.421986749755888
18	19	81	n/a	n/a	n/a	f	1	0.03000000000000003	2	f	1	0.3950186996189586
18	20	101	n/a	n/a	n/a	f	1	0.04000000000000003	1	f	1	0.4492173757353157
18	21	81	n/a	n/a	n/a	j	1	0.03000000000000003	2	j	1	0.3849430287400537
18	22	101	n/a	n/a	n/a	f	1	0.04000000000000003	1	f	1	0.4199334693830679
18	23	81	n/a	n/a	n/a	f	1	0.03000000000000003	2	f	1	0.3930783183059248
18	24	101	n/a	n/a	n/a	f	1	0.04000000000000003	1	f	1	0.4150557168268278
18	25	81	n/a	n/a	n/a	j	1	0.03000000000000003	1	j	1	0.3945129346402609
18	26	81	n/a	n/a	n/a	f	1	0.02000000000000002	1	f	1	0.4308396325877766
18	27	81	n/a	n/a	n/a	f	1	0.01000000000000002	2	f	1	0.3798084023128467
18	28	101	n/a	n/a	n/a	f	1	0.02000000000000002	1	f	1	0.422722019136927
18	29	81	n/a	n/a	n/a	j	1	0.01000000000000002	2	j	1	0.3648407239452354
18	30	101	n/a	n/a	n/a	f	1	0.02000000000000002	1	f	1	0.4348261668092164
18	31	81	n/a	n/a	n/a	f	1	0.01000000000000002	2	f	1	0.3997094274709525
18	32	101	n/a	n/a	n/a	f	1	0.02000000000000002	1	f	1	0.410348168155906
18	33	81	n/a	n/a	n/a	j	1	0.01000000000000002	2	j	1	0.3583401899559249
18	34	101	n/a	n/a	n/a	f	1	0.02000000000000002	0	f	1	0.356536655986929
18	35	61	n/a	n/a	n/a	f	1	0.03000000000000003	1	f	1	0.4967513010478797
18	36	81	n/a	n/a	n/a	f	1	0.02000000000000002	2	f	1	0.3645476425472225
18	37	101	n/a	n/a	n/a	j	1	0.03000000000000003	1	j	1	0.4204842799463222
18	38	81	n/a	n/a	n/a	f	1	0.02000000000000002	2	f	1	0.3996712242533249
18	39	101	n/a	n/a	n/a	f	1	0.03000000000000003	1	f	1	0.4295019497894828
18	40	81	n/a	n/a	n/a	f	1	0.02000000000000002	2	f	1	0.3875736338495699
18	41	101	n/a	n/a	n/a	j	1	0.03000000000000003	1	j	1	0.3922332859501694
18	42	81	n/a	n/a	n/a	f	1	0.02000000000000002	1	f	1	0.4114272664919554
18	43	81	n/a	n/a	n/a	f	1	0.01000000000000002	2	f	1	0.3753420470884521
18	44	101	n/a	n/a	n/a	f	1	0.02000000000000002	1	f	1	0.3814762293313834
18	45	81	n/a	n/a	n/a	j	1	0.01000000000000002	1	j	1	0.355372028059719
18	46	81	n/a	n/a	n/a	f	1	2.42861286636753e-17	0	f	1	0.4479116239845098
18	47	61	n/a	n/a	n/a	f	1	0.01000000000000002	2	f	1	0.3792795443432624
18	48	101	n/a	n/a	n/a	f	1	0.02000000000000002	1	f	1	0.4072428738172675
18	49	81	n/a	n/a	n/a	j	1	0.01000000000000002	2	j	1	0.3550681129145232
18	50	101	n/a	n/a	n/a	f	1	0.02000000000000002	0	f	1	0.4316675590262093
18	51	61	n/a	n/a	n/a	f	1	0.03000000000000003	2	f	1	0.4272573682319489
18	52	101	n/a	n/a	n/a	f	1	0.04000000000000003	1	f	1	0.4151999767364032
18	53	81	n/a	n/a	n/a	j	1	0.03000000000000003	2	j	1	0.3603045195550294
18	54	101	n/a	n/a	n/a	f	1	0.04000000000000003	1	f	1	0.4681416529674607
18	55	81	n/a	n/a	n/a	f	1	0.03000000000000003	2	f	1	0.4068833644378174
18	56	101	n/a	n/a	n/a	f	1	0.04000000000000003	1	f	1	0.3949847728817986
18	57	81	n/a	n/a	n/a	j	1	0.03000000000000003	1	j	1	0.3772137196310723
18	58	81	n/a	n/a	n/a	f	1	0.02000000000000002	1	f	1	0.4370525020549394
18	59	81	n/a	n/a	n/a	f	1	0.01000000000000002	2	f	1	0.4246883444266132
18	60	101	n/a	n/a	n/a	f	1	0.02000000000000002	2	f	1	0.3978468780842377
18	61	101	n/a	n/a	n/a	j	1	0.03000000000000003	1	j	1	0.4259045752060047
18	62	81	n/a	n/a	n/a	f	1	0.02000000000000002	2	f	1	0.4362630639316194
18	63	101	n/a	n/a	n/a	f	1	0.03000000000000003	2	f	1	0.3824219015050403
18	64	101	n/a	n/a	n/a	f	1	0.04000000000000003	1	f	1	0.4185972120776569
18	65	81	n/a	n/a	n/a	j	1	0.03000000000000003	2	j	1	0.4068639777306089
18	66	101	n/a	n/a	n/a	f	1	0.04000000000000003	1	f	1	0.4098138933122755
18	67	81	n/a	n/a	n/a	f	1	0.03000000000000003	1	f	1	0.4155207127005269
18	68	81	n/a	n/a	n/a	f	1	0.02000000000000002	2	f	1	0.3888021238708461
18	69	101	n/a	n/a	n/a	j	1	0.03000000000000003	1	j	1	0.4650728512542628
18	70	81	n/a	n/a	n/a	f	1	0.02000000000000002	2	f	1	0.4116664642469914
18	71	101	n/a	n/a	n/a	f	1	0.03000000000000003	1	f	1	0.423855571311833
19	0	91	f	1	1.881153497675768	f	11	0.1	0	f	1	0.8655526152379025
19	1	71	n/a	n/a	n/a	f	11	0.11	0	f	1	0.9237606334663724
19	2	71	n/a	n/a	n/a	j	11	0.12	1	j	1	1.673598269792819
19	3	91	n/a	n/a	n/a	f	11	0.11	2	f	1	0.8198319172488482
19	4	111	n/a	n/a	n/a	f	11	0.12	0	f	1	0.9674009667123755
19	5	71	n/a	n/a	n/a	f	11	0.13	1	f	1	1.18954640236916
19	6	91	n/a	n/a	n/a	f	11	0.12	2	f	1	1.049373381709302
19	7	111	n/a	n/a	n/a	f	11	0.13	1	f	1	0.9113779444269312
19	8	91	n/a	n/a	n/a	j	11	0.12	1	j	1	0.9733589579991531
19	9	91	n/a	n/a	n/a	f	11	0.11	1	f	1	0.8800456043782106
19	10	91	n/a	n/a	n/a	f	11	0.1	0	f	1	0.9081663082979503
19	11	71	n/a	n/a	n/a	f	11	0.11	1	f	1	0.9843249919167647
19	12	91	n/a	n/a	n/a	f	11	0.1	1	f	1	0.9847209939216555
19	13	91	n/a	n/a	n/a	f	11	0.09000000000000002	1	f	1	0.9341171265023149
19	14	91	n/a	n/a	n/a	j	11	0.08000000000000003	1	j	1	0.9931422374202157
19	15	91	n/a	n/a	n/a	f	11	0.07000000000000003	1	f	1	0.9168695143453078
19	16	91	n/a	n/a	n/a	f	11	0.06000000000000003	0	f	1	0.9360757541289786
19	17	71	n/a	n/a	n/a	f	11	0.07000000000000003	1	f	1	0.999025532863925
19	18	91	n/a	n/a	n/a	f	11	0.06000000000000003	1	f	1	0.9398185290165202
19	19	91	n/a	n/a	n/a	f	11	0.05000000000000003	1	f	1	0.9615533085980132
19	20	91	n/a	n/a	n/a	j	11	0.04000000000000003	1	j	1	0.8935481608577902
19	21	91	n/a	n/a	n/a	f	11	0.03000000000000003	0	f	1	0.8676398223497017
19	22	71	n/a	n/a	n/a	f	11	0.04000000000000003	0	f	1	0.9755793061722215
19	23	71	n/a	n/a	n/a	f	11	0.05000000000000003	1	f	1	1.011482062449431
19	24	91	n/a	n/a	n/a	f	11	0.04000000000000003	1	f	1	0.9294885501540193
19	25	91	n/a	n/a	n/a	f	11	0.03000000000000003	0	f	1	0.9445049803880465
19	26	71	n/a	n/a	n/a	j	11	0.04000000000000003	0	j	1	0.9632847126122215
19	27	71	n/a	n/a	n/a	f	11	0.05000000000000003	1	f	1	0.9583653356548893
19	28	91	n/a	n/a	n/a	f	11	0.04000000000000003	1	f	1	0.8762689027525994
19	29	91	n/a	n/a	n/a	f	11	0.03000000000000003	0	f	1	0.9695488998331712
19	30	71	n/a	n/a	n/a	f	11	0.04000000000000003	1	f	1	0.9763524936724934
19	31	91	n/a	n/a	n/a	f	11	0.03000000000000003	1	f	1	0.859981787898505
19	32	91	n/a	n/a	n/a	j	11	0.02000000000000002	0	j	1	0.9780308693398183
19	33	71	n/a	n/a	n/a	f	11	0.03000000000000003	1	f	1	0.8551068863298497
19	34	91	n/a	n/a	n/a	f	11	0.02000000000000002	0	f	1	0.9480758407989924
19	35	71	n/a	n/a	n/a	f	11	0.03000000000000003	0	f	1	0.8960427739184524
19	36	71	n/a	n/a	n/a	f	11	0.04000000000000003	0	f	1	0.9899112145831168
19	37	71	n/a	n/a	n/a	f	11	0.05000000000000003	1	f	1	0.9457608398779485
19	38	91	n/a	n/a	n/a	j	11	0.04000000000000003	1	f	0	0.9576605718284554
19	39	131	n/a	n/a	n/a	f	11	0.05000000000000003	1	f	1	0.8896374628729973
19	40	91	n/a	n/a	n/a	f	11	0.04000000000000003	0	f	1	0.9335691669248263
19	41	71	n/a	n/a	n/a	f	11	0.05000000000000003	1	f	1	1.008754523802054
19	42	91	n/a	n/a	n/a	f	11	0.04000000000000003	1	f	1	0.8143055652963085
19	43	91	n/a	n/a	n/a	f	11	0.03000000000000003	0	f	1	0.8734757914198781
19	44	71	n/a	n/a	n/a	j	11	0.04000000000000003	0	f	0	1.077341842958049
19	45	131	n/a	n/a	n/a	f	11	0.05000000000000003	2	f	1	0.7875145614134453
19	46	111	n/a	n/a	n/a	f	11	0.06000000000000003	0	f	1	0.7985840861365432
19	47	71	n/a	n/a	n/a	f	11	0.07000000000000003	0	f	1	1.034288812899831
19	48	71	n/a	n/a	n/a	f	11	0.08000000000000003	1	f	1	0.8151420446938573
19	49	91	n/a	n/a	n/a	f	11	0.07000000000000003	0	f	1	0.9164053737667928
19	50	71	n/a	n/a	n/a	j	11	0.08000000000000003	0	f	0	0.9292493523989833
19	51	131	n/a	n/a	n/a	f	11	0.07000000000000003	1	f	1	0.748938435231139
19	52	91	n/a	n/a	n/a	f	11	0.06000000000000003	0	f	1	0.8310693650682879
19	53	71	n/a	n/a	n/a	f	11	0.07000000000000003	0	f	1	0.8217135682434673
19	54	71	n/a	n/a	n/a	f	11	0.08000000000000003	0	f	1	0.8010949498202535
19	55	71	n/a	n/a	n/a	f	11	0.09000000000000002	0	f	1	0.8763646958941536
19	56	71	n/a	n/a	n/a	j	11	0.1	0	j	1	0.9126095705332773
19	57	71	n/a	n/a	n/a	f	11	0.11	1	f	1	0.869277428912028
19	58	91	n/a	n/a	n/a	f	11	0.1	0	f	1	0.9859551859153726
19	59	71	n/a	n/a	n/a	f	11	0.11	1	f	1	0.9743405526014612
19	60	91	n/a	n/a	n/a	f	11	0.1	1	f	1	0.858626143886795
19	61	91	n/a	n/a	n/a	f	11	0.09000000000000002	0	f	1	0.9184284336852215
19	62	71	n/a	n/a	n/a	j	11	0.1	1	j	1	0.9635048087584437
19	63	91	n/a	n/a	n/a	f	11	0.09000000000000002	1	f	1	0.9779735645142864
19	64	91	n/a	n/a	n/a	f	11	0.08000000000000003	1	f	1	0.9164421514915375
19	65	91	n/a	n/a	n/a	f	11	0.07000000000000003	1	f	1	0.945270755322781
19	66	91	n/a	n/a	n/a	f	11	0.06000000000000003	1	f	1	0.8804159475048436
19	67	91	n/a	n/a	n/a	f	11	0.05000000000000003	0	f	1	0.9001858272904428
19	68	71	n/a	n/a	n/a	j	11	0.06000000000000003	0	j	1	1.000257444067756
19	69	71	n/a	n/a	n/a	f	11	0.07000000000000003	1	f	1	0.9090943043565858
19	70	91	n/a	n/a	n/a	f	11	0.06000000000000003	0	f	1	0.9443909409337721
19	71	71	n/a	n/a	n/a	f	11	0.07000000000000003	1	f	1	0.9239476581706185
20	0	89	f	1	1.026038913682896	f	9	0.06000000000000002	0	f	1	0.8754942897594447
20	1	69	n/a	n/a	n/a	j	9	0.07000000000000002	0	j	1	0.9755105974008984
20	2	69	n/a	n/a	n/a	f	9	0.08000000000000002	1	f	1	0.9313790392061492
20	3	89	n/a	n/a	n/a	f	9	0.07000000000000002	1	f	1	0.9213441374313334
20	4	89	n/a	n/a	n/a	f	9	0.06000000000000002	0	f	1	0.9503115842990155
20	5	69	n/a	n/a	n/a	j	9	0.07000000000000002	1	j	1	0.9687788484179691
20	6	89	n/a	n/a	n/a	f	9	0.06000000000000002	1	f	1	0.9421135730326569
20	7	89	n/a	n/a	n/a	f	9	0.05000000000000002	1	f	1	0.9447535863982921
20	8	89	n/a	n/a	n/a	f	9	0.04000000000000001	0	f	1	0.8860500667415181
20	9	69	n/a	n/a	n/a	j	9	0.05000000000000002	0	j	1	0.9627866452956368
20	10	69	n/a	n/a	n/a	f	9	0.06000000000000002	1	f	1	0.951715409980352
20	11	89	n/a	n/a	n/a	f	9	0.05000000000000002	1	f	1	0.9960436862338611
20	12	89	n/a	n/a	n/a	f	9	0.04000000000000001	1	f	1	0.9268445454072207
20	13	89	n/a	n/a	n/a	j	9	0.03000000000000001	0	j	1	1.011568447335776
20	14	69	n/a	n/a	n/a	f	9	0.04000000000000001	1	f	1	0.8899279783827296
20	15	89	n/a	n/a	n/a	f	9	0.03000000000000001	0	f	1	0.9495808764959293
20	16	69	n/a	n/a	n/a	f	9	0.04000000000000001	1	f	1	0.9146999137292369
20	17	89	n/a	n/a	n/a	j	9	0.03000000000000001	0	j	1	0.9926723948683502
20	18	69	n/a	n/a	n/a	f	9	0.04000000000000001	1	f	1	0.9235151635411967
20	19	89	n/a	n/a	n/a	f	9	0.03000000000000001	0	f	1	0.9681139984004403
20	20	69	n/a	n/a	n/a	f	9	0.04000000000000001	1	f	1	0.9809830657104612
20	21	89	n/a	n/a	n/a	j	9	0.03000000000000001	1	j	1	1.298781944588882
20	22	89	n/a	n/a	n/a	f	9	0.02000000000000001	2	f	1	0.839330668231014
20	23	109	n/a	n/a	n/a	f	9	0.03000000000000001	0	f	1	1.0831598508139
20	24	69	n/a	n/a	n/a	f	9	0.04000000000000001	2	f	1	0.8078486513977623
20	25	109	n/a	n/a	n/a	j	9	0.05000000000000002	0	j	1	0.7885950852423775
20	26	69	n/a	n/a	n/a	f	9	0.06000000000000002	0	f	1	0.9533016987879819
20	27	69	n/a	n/a	n/a	f	9	0.07000000000000002	1	f	1	0.9280567848063583
20	28	89	n/a	n/a	n/a	f	9	0.06000000000000002	0	f	1	0.8619119056620548
20	29	69	n/a	n/a	n/a	j	9	0.07000000000000002	0	j	1	0.9378060177477892
20	30	69	n/a	n/a	n/a	f	9	0.08000000000000002	1	f	1	0.9039804901294701
20	31	89	n/a	n/a	n/a	f	9	0.07000000000000002	0	f	1	0.9165137112486264
20	32	69	n/a	n/a	n/a	f	9	0.08000000000000002	1	f	1	0.9468610355124838
20	33	89	n/a	n/a	n/a	j	9	0.07000000000000002	1	j	1	0.8916858965694701
20	34	89	n/a	n/a	n/a	f	9	0.06000000000000002	0	f	1	0.8566740735295753
20	35	69	n/a	n/a	n/a	f	9	0.07000000000000002	0	f	1	0.9725444311970932
20	36	69	n/a	n/a	n/a	f	9	0.08000000000000002	1	f	1	0.8504483746246478
20	37	89	n/a	n/a	n/a	j	9	0.07000000000000002	0	j	1	0.8619187480289838
20	38	69	n/a	n/a	n/a	f	9	0.08000000000000002	0	f	1	0.9693986528518508
20	39	69	n/a	n/a	n/a	f	9	0.09000000000000001	1	f	1	1.02087606249188
20	40	89	n/a	n/a	n/a	f	9	0.08000000000000002	1	f	1	0.8722130895621376
20	41	89	n/a	n/a	n/a	j	9	0.07000000000000002	1	f	0	0.8521965994568745
20	42	129	n/a	n/a	n/a	f	9	0.08000000000000002	0	f	1	0.9309693524664908
20	43	69	n/a	n/a	n/a	f	9	0.09000000000000001	1	f	1	0.9551722309370234
20	44	89	n/a	n/a	n/a	f	9	0.08000000000000002	1	f	1	0.9449517299499348
20	45	89	n/a	n/a	n/a	j	9	0.07000000000000002	1	f	0	1.030981098530901
20	46	129	n/a	n/a	n/a	f	9	0.06000000000000002	1	f	1	0.9329861402147799
20	47	89	n/a	n/a	n/a	f	9	0.05000000000000002	1	f	1	0.8960185405339871
20	48	89	n/a	n/a	n/a	f	9	0.04000000000000001	0	f	1	0.8677969116970417
20	49	69	n/a	n/a	n/a	j	9	0.05000000000000002	0	j	1	1.000032501244277
20	50	69	n/a	n/a	n/a	f	9	0.06000000000000002	1	f	1	0.8065508824083736
20	51	89	n/a	n/a	n/a	f	9	0.05000000000000002	0	f	1	0.8906658136511396
20	52	69	n/a	n/a	n/a	f	9	0.06000000000000002	0	f	1	0.7731812275096672
20	53	69	n/a	n/a	n/a	j	9	0.07000000000000002	0	j	1	0.9784568067016153
20	54	69	n/a	n/a	n/a	f	9	0.08000000000000002	1	f	1	0.8614494756757267
